Receiver time, Accel X,Y,Z, Gyro X,Y,Z, Quaternion W,X,Y,Z, dt(or)index
1418450559756,-575,-522,-1747,0,3,2,-218807774,-608933512,856444914,27326741,23893
1418450559756,-573,-527,-1737,0,5,2,-218820993,-608927496,856446205,27314493,23898
1418450559763,-573,-527,-1744,0,4,2,-218832544,-608921428,856447884,27304564,23903
1418450559763,-566,-524,-1745,0,3,4,-218841616,-608910769,856453448,27295055,23909
1418450559774,-570,-526,-1739,1,4,1,-218850245,-608907764,856453745,27283595,23914
1418450559774,-571,-524,-1737,2,4,1,-218858032,-608905224,856454000,27269806,23919
1418450559793,-580,-535,-1737,2,3,1,-218863597,-608902564,856454864,27257390,23924
1418450559793,-578,-529,-1741,2,3,1,-218870680,-608899757,856455430,27245417,23929
1418450559796,-580,-525,-1734,0,1,-1,-218879441,-608899727,856453302,27242610,23934
1418450559796,-577,-530,-1725,-1,0,-1,-218887806,-608898928,856451713,27243214,23939
1418450559828,-573,-522,-1730,-5,-2,0,-218897023,-608894004,856452513,27254079,23944
1418450559828,-573,-523,-1728,-9,-2,1,-218911678,-608884543,856454892,27272949,23949
1418450559830,-576,-525,-1724,-10,-4,1,-218923546,-608874348,856458326,27297447,23955
1418450559830,-574,-517,-1737,-10,-2,0,-218940493,-608866495,856458881,27319282,23960
1418450559833,-575,-526,-1730,-10,-2,3,-218956330,-608851874,856464609,27338638,23965
1418450559833,-575,-525,-1737,-9,-3,2,-218969186,-608840034,856469096,27358764,23970
1418450559835,-577,-526,-1744,-11,-2,1,-218987085,-608829415,856471317,27382266,23975
1418450559835,-580,-528,-1741,-11,-4,3,-219000467,-608814088,856477976,27407749,23980
1418450559839,-575,-530,-1726,-11,-5,1,-219011963,-608803171,856481892,27436010,23985
1418450559839,-574,-523,-1740,-11,-6,2,-219021641,-608789942,856487861,27465942,23990
1418450559858,-572,-529,-1733,-13,-6,3,-219033416,-608773327,856495594,27499141,23995
1418450559858,-571,-526,-1749,-14,-7,2,-219044990,-608758378,856502024,27537586,24001
1418450559860,-571,-535,-1745,-16,-9,0,-219054034,-608746776,856506442,27584668,24006
1418450559860,-571,-528,-1731,-19,-8,0,-219070983,-608733524,856509810,27637858,24011
1418450559893,-574,-529,-1739,-17,-7,0,-219087197,-608721383,856512794,27684243,24016
1418450559893,-576,-532,-1740,-15,-6,1,-219102465,-608708180,856516996,27723678,24021
1418450559895,-574,-532,-1746,-13,-6,0,-219114735,-608698399,856519656,27759264,24026
1418450559895,-572,-534,-1730,-10,-7,-1,-219119307,-608692657,856521560,27790302,24031
1418450559898,-574,-529,-1739,-8,-7,-1,-219121354,-608688045,856523441,27817204,24036
1418450559898,-565,-524,-1741,-7,-6,-2,-219123415,-608686344,856523379,27840089,24041
1418450559900,-574,-521,-1742,-5,-5,-2,-219123279,-608686080,856523054,27856920,24047
1418450559900,-567,-525,-1739,-3,-5,-1,-219120559,-608684472,856524543,27867656,24052
1418450559917,-573,-523,-1740,-5,-4,-3,-219122973,-608686507,856521967,27883406,24057
1418450559917,-563,-526,-1740,-3,-3,-4,-219124725,-608691914,856517367,27892919,24062
1418450559919,-565,-524,-1743,-1,-3,-3,-219122583,-608696464,856514506,27898289,24067
1418450559920,-575,-525,-1742,-1,-3,-1,-219120502,-608696410,856514952,27902132,24072
1418450559952,-566,-526,-1743,-2,-3,-1,-219121068,-608695531,856515252,27907646,24077
1418450559952,-566,-530,-1740,0,0,-3,-219121997,-608700758,856511313,27907253,24082
1418450559954,-566,-521,-1746,-1,-3,-2,-219116556,-608703488,856510624,27911550,24087
1418450559955,-561,-515,-1740,-1,-3,-2,-219114158,-608705689,856509542,27915586,24093
1418450559957,-566,-516,-1741,-4,-4,-2,-219113796,-608706112,856508933,27927889,24098
1418450559957,-569,-513,-1749,-6,-4,-1,-219117224,-608702977,856509762,27943900,24103
1418450559959,-571,-526,-1735,-6,-1,0,-219127264,-608697741,856510588,27953901,24108
1418450559959,-563,-539,-1740,-3,1,0,-219140305,-608693769,856509963,27957312,24113
1418450559991,-570,-528,-1739,-3,0,1,-219150983,-608687744,856511308,27963574,24118
1418450559991,-562,-533,-1736,0,1,1,-219159066,-608683303,856512519,27959799,24123
1418450559993,-564,-545,-1742,3,3,-1,-219162525,-608686039,856510090,27947526,24129
1418450559993,-566,-535,-1744,5,3,-3,-219163244,-608694566,856504325,27932860,24133
1418450559995,-567,-535,-1734,8,3,-3,-219158552,-608704747,856499028,27910221,24139
1418450559996,-565,-536,-1730,10,4,-4,-219153402,-608718368,856491585,27881982,24144
1418450559999,-571,-534,-1724,12,5,-5,-219147294,-608735543,856482033,27848418,24149
1418450559999,-571,-528,-1745,13,8,-4,-219147197,-608751052,856472395,27806553,24154
1418450560030,-569,-524,-1748,13,6,-5,-219141065,-608768783,856462619,27767813,24159
1418450560030,-566,-527,-1733,13,7,-4,-219136709,-608784350,856454003,27726613,24164
1418450560035,-571,-523,-1740,14,8,-4,-219133657,-608800576,856444688,27682127,24169
1418450560035,-570,-519,-1741,15,8,-4,-219128849,-608817284,856435577,27634587,24174
1418450560038,-562,-524,-1740,12,9,-4,-219130794,-608832322,856425764,27591958,24179
1418450560038,-570,-525,-1736,10,9,-3,-219135689,-608844130,856417326,27554391,24185
1418450560040,-570,-511,-1742,8,9,-4,-219144741,-608856844,856407028,27521537,24190
1418450560040,-568,-511,-1736,7,7,-3,-219149743,-608866498,856399826,27492225,24195
1418450560075,-566,-525,-1747,6,7,-3,-219156473,-608875582,856392506,27465384,24200
1418450560076,-573,-524,-1737,4,6,-2,-219164406,-608881347,856387011,27445601,24205
1418450560078,-572,-522,-1741,3,8,-1,-219179652,-608884161,856381809,27423744,24210
1418450560078,-567,-520,-1725,2,6,-1,-219191540,-608886282,856377786,27407271,24215
1418450560080,-563,-522,-1727,1,7,0,-219207590,-608885627,856374659,27391135,24220
1418450560081,-573,-524,-1718,0,5,-1,-219224187,-608886133,856370335,27382243,24226
1418450560083,-567,-526,-1736,-1,7,-2,-219248364,-608888202,856362986,27372513,24231
1418450560083,-567,-525,-1742,-2,5,-1,-219268369,-608887526,856358481,27368242,24236
1418450560115,-570,-527,-1748,-2,5,-1,-219288011,-608886881,856354051,27363838,24241
1418450560115,-572,-530,-1720,-2,3,-2,-219303119,-608888348,856349159,27363209,24246
1418450560118,-565,-522,-1741,-2,3,0,-219320098,-608885059,856347197,27361733,24251
1418450560118,-570,-527,-1735,-3,3,-1,-219336452,-608883711,856343935,27362709,24256
1418450560123,-584,-522,-1731,-4,3,-2,-219355413,-608883935,856338791,27366720,24261
1418450560123,-580,-527,-1733,-3,2,-2,-219371620,-608884280,856334334,27368605,24266
1418450560125,-577,-520,-1741,-4,3,-3,-219391504,-608886533,856327513,27372496,24272
1418450560125,-574,-528,-1737,-4,1,-2,-219405784,-608886438,856323730,27378523,24277
1418450560129,-580,-525,-1740,-5,1,-2,-219422107,-608885856,856319663,27387850,24282
1418450560129,-573,-526,-1738,-7,0,-2,-219439597,-608883888,856316108,27402616,24287
1418450560160,-578,-529,-1739,-9,0,-2,-219459843,-608880914,856312396,27422544,24292
1418450560160,-581,-525,-1732,-10,-1,-2,-219478399,-608877770,856309188,27444018,24297
1418450560162,-587,-517,-1745,-9,-1,-1,-219495758,-608872791,856307701,27462054,24302
1418450560163,-582,-528,-1733,-8,-1,0,-219510970,-608866000,856308185,27475926,24307
1418450560165,-584,-527,-1731,-3,1,0,-219525073,-608861810,856307452,27478937,24312
1418450560165,-575,-536,-1727,-4,-1,-2,-219534679,-608861968,856304646,27486130,24318
1418450560169,-579,-532,-1734,-2,-2,-1,-219538774,-608861190,856303982,27491344,24323
1418450560169,-570,-531,-1735,-1,-1,-2,-219543225,-608863271,856301323,27492519,24328
1418450560201,-571,-521,-1733,-2,-2,-3,-219546006,-608867191,856297624,27498717,24333
1418450560201,-566,-513,-1730,-4,-2,-2,-219551657,-608867564,856295617,27507849,24338
1418450560203,-572,-515,-1735,-8,-2,-2,-219562973,-608865650,856293503,27525688,24343
1418450560203,-574,-514,-1736,-13,-3,-2,-219580543,-608860637,856291578,27556281,24348
1418450560206,-581,-523,-1729,-14,-5,-1,-219595311,-608852561,856292398,27591554,24353
1418450560206,-572,-521,-1739,-17,-5,-1,-219616487,-608842574,856292697,27634079,24358
1418450560234,-577,-524,-1742,-16,-3,-1,-219639157,-608833579,856292070,27671448,24364
1418450560235,-573,-531,-1731,-16,-5,0,-219657830,-608822072,856294171,27711379,24369
1418450560250,-571,-531,-1733,-15,-6,-1,-219673131,-608813427,856295069,27752259,24374
1418450560250,-567,-527,-1735,-12,-6,-2,-219683208,-608808875,856294593,27786996,24379
1418450560253,-567,-515,-1735,-10,-5,-2,-219691601,-608805649,856293811,27815417,24384
1418450560253,-570,-517,-1738,-9,-6,-3,-219695253,-608805138,856292355,27842577,24389
1418450560255,-578,-523,-1747,-7,-5,-2,-219698270,-608803548,856292049,27862920,24394
1418450560255,-578,-524,-1729,-8,-7,-1,-219699095,-608798840,856294363,27888154,24399
1418450560263,-581,-521,-1726,-11,-5,0,-219710356,-608790142,856296731,27916603,24404
1418450560263,-582,-518,-1736,-12,-5,1,-219723538,-608778467,856300682,27946247,24410
1418450560291,-582,-519,-1738,-11,-5,2,-219734582,-608765113,856306482,27972586,24415
1418450560292,-582,-528,-1736,-10,-5,4,-219744114,-608747799,856315594,27995548,24420
1418450560294,-582,-539,-1730,-7,-3,4,-219754007,-608732432,856323529,28009314,24425
1418450560294,-580,-537,-1736,-4,-1,3,-219764507,-608721282,856328585,28014693,24430
1418450560301,-579,-538,-1732,-1,0,5,-219773587,-608706888,856336554,28012627,24435
1418450560301,-571,-541,-1734,0,2,4,-219781794,-608696027,856342412,28005161,24440
1418450560304,-578,-543,-1731,2,1,2,-219783687,-608691048,856345739,27996782,24445
1418450560304,-572,-531,-1752,5,3,2,-219786190,-608687801,856348017,27978037,24450
1418450560306,-567,-525,-1732,2,3,0,-219791077,-608687557,856347315,27966435,24456
1418450560306,-572,-524,-1747,0,3,1,-219799413,-608683826,856348080,27958705,24461
1418450560309,-567,-510,-1732,-3,1,0,-219811539,-608679925,856347641,27961762,24466
1418450560309,-558,-511,-1741,-4,3,2,-219829375,-608670971,856349427,27961762,24471
1418450560338,-572,-517,-1746,-5,2,4,-219845496,-608657073,856355055,27965176,24476
1418450560338,-567,-521,-1744,-7,1,5,-219864061,-608639380,856362584,27973746,24481
1418450560340,-554,-520,-1739,-11,-2,7,-219880681,-608615279,856374796,27993608,24486
1418450560340,-561,-520,-1740,-11,0,6,-219902393,-608593298,856384178,28013949,24491
1418450560342,-570,-524,-1729,-10,1,5,-219925271,-608574095,856391408,28030461,24496
1418450560342,-570,-533,-1741,-8,-2,6,-219938119,-608553886,856402019,28044222,24502
1418450560351,-572,-535,-1734,-9,-3,4,-219950138,-608537705,856409787,28063860,24507
1418450560351,-577,-531,-1724,-8,-2,4,-219963461,-608522106,856416931,28079686,24512
1418450560383,-576,-538,-1744,-7,-4,4,-219971286,-608506738,856425313,28095783,24517
1418450560383,-579,-534,-1724,-5,-4,3,-219975170,-608495009,856432230,28108531,24522
1418450560386,-583,-532,-1732,-6,-4,2,-219981592,-608484758,856437367,28123660,24527
1418450560386,-576,-530,-1737,-5,-4,2,-219986241,-608475032,856442679,28135973,24532
1418450560388,-581,-527,-1741,-5,-4,2,-219989877,-608465491,856448110,28148553,24537
1418450560388,-573,-523,-1750,-6,-5,1,-219992849,-608457454,856452518,28164940,24542
1418450560390,-573,-529,-1734,-7,-7,0,-219991381,-608451184,856456605,28187549,24548
1418450560391,-576,-528,-1740,-6,-6,0,-219991731,-608445514,856459905,28206936,24553
1418450560413,-578,-532,-1731,-7,-5,-1,-219995827,-608441570,856460987,28227213,24558
1418450560413,-571,-530,-1739,-7,-6,1,-219998664,-608432910,856465717,28248235,24563
1418450560418,-581,-532,-1734,-7,-5,1,-220002625,-608424528,856470006,28267883,24568
1418450560419,-577,-524,-1739,-8,-7,-1,-220004775,-608419712,856472022,28293731,24573
1418450560420,-575,-532,-1733,-8,-5,-2,-220010295,-608417403,856471495,28316383,24578
1418450560421,-565,-526,-1731,-12,-5,-3,-220022835,-608415090,856468815,28349700,24583
1418450560453,-577,-521,-1738,-14,-6,0,-220035358,-608404878,856471598,28387563,24589
1418450560454,-569,-518,-1728,-14,-5,0,-220050596,-608394461,856473927,28422401,24594
1418450560455,-564,-515,-1736,-14,-5,0,-220065392,-608384157,856476277,28457564,24599
1418450560456,-568,-523,-1722,-13,-3,1,-220082162,-608372458,856479313,28486619,24604
1418450560458,-564,-531,-1738,-12,-1,-1,-220103268,-608365925,856477688,28511900,24609
1418450560458,-556,-536,-1737,-8,1,-1,-220123427,-608361543,856475082,28528056,24614
1418450560461,-556,-533,-1751,-6,1,-1,-220139971,-608358551,856472533,28540710,24619
1418450560461,-557,-538,-1741,-2,5,-1,-220158280,-608358274,856468135,28537373,24624
1418450560493,-558,-539,-1742,0,6,0,-220176592,-608356913,856464715,28527750,24629
1418450560493,-558,-537,-1733,2,7,-2,-220189988,-608361863,856458263,28512481,24635
1418450560495,-567,-539,-1737,3,6,-3,-220199713,-608369539,856450826,28497004,24640
1418450560496,-564,-534,-1731,5,6,-3,-220206948,-608378208,856443490,28476501,24645
1418450560498,-569,-529,-1720,6,6,-2,-220212337,-608385190,856437929,28452899,24650
1418450560498,-568,-531,-1716,4,4,-1,-220217154,-608388350,856435015,28435746,24655
1418450560500,-571,-529,-1729,3,5,-2,-220226025,-608393294,856429740,28420138,24660
1418450560500,-571,-521,-1737,3,5,-1,-220234482,-608395952,856426230,28403457,24665
1418450560533,-563,-524,-1722,0,7,1,-220251613,-608392440,856424820,28388378,24670
1418450560533,-575,-525,-1733,-1,5,1,-220269885,-608387803,856423677,28380445,24675
1418450560535,-576,-533,-1734,-1,3,2,-220284287,-608380518,856425350,28374344,24681
1418450560538,-573,-535,-1736,-3,2,3,-220300268,-608369736,856428892,28374549,24686
1418450560538,-575,-534,-1740,-4,5,3,-220324458,-608358691,856430581,28372572,24691
1418450560538,-576,-538,-1736,-5,5,4,-220350257,-608344749,856433865,28372025,24696
1418450560540,-573,-545,-1743,-2,3,3,-220367087,-608334676,856436796,28368810,24701
1418450560540,-573,-539,-1737,0,3,3,-220376596,-608326447,856440445,28361230,24706
1418450560563,-578,-531,-1730,1,2,1,-220381961,-608323219,856441610,28353617,24711
1418450560563,-576,-542,-1728,4,5,1,-220389598,-608321767,856441351,28333207,24716
1418450560565,-565,-541,-1730,7,6,0,-220395187,-608324538,856438839,28306165,24721
1418450560565,-577,-537,-1734,9,8,-2,-220400779,-608333469,856432146,28273178,24727
1418450560569,-569,-540,-1734,9,6,-2,-220402455,-608341960,856426706,28242173,24732
1418450560569,-566,-534,-1725,11,8,-3,-220404835,-608354269,856418581,28204829,24737
1418450560602,-577,-533,-1728,12,7,-3,-220403098,-608367073,856411193,28166520,24742
1418450560602,-579,-519,-1720,14,7,-4,-220398842,-608383080,856402336,28123350,24747
1418450560604,-572,-520,-1718,12,8,-3,-220399869,-608395525,856394618,28081086,24752
1418450560604,-577,-522,-1739,12,7,-2,-220398213,-608405780,856389089,28040481,24757
1418450560606,-575,-513,-1742,12,5,0,-220391704,-608411344,856388081,28001668,24762
1418450560607,-575,-509,-1735,12,6,1,-220386654,-608414713,856388352,27959906,24767
1418450560609,-575,-519,-1743,11,6,1,-220383315,-608417430,856388580,27920093,24773
1418450560609,-576,-521,-1745,8,4,2,-220380595,-608416068,856391204,27890724,24778
1418450560641,-581,-511,-1739,6,4,3,-220381311,-608411253,856395263,27865456,24783
1418450560642,-576,-516,-1746,5,4,4,-220383837,-608403353,856401034,27840593,24788
1418450560644,-578,-518,-1733,4,2,6,-220383088,-608390352,856411103,27820892,24793
1418450560644,-575,-527,-1729,2,1,5,-220384167,-608378271,856419823,27808103,24798
1418450560646,-586,-530,-1730,2,2,7,-220388165,-608361808,856430958,27793647,24803
1418450560647,-579,-525,-1738,4,4,7,-220394628,-608346427,856440959,27770902,24808
1418450560649,-579,-538,-1728,4,4,8,-220399817,-608328953,856452793,27747539,24813
1418450560649,-587,-535,-1736,8,3,7,-220397478,-608316056,856463492,27718607,24819
1418450560684,-584,-532,-1729,11,2,5,-220388001,-608309246,856471863,27684727,24824
1418450560684,-588,-538,-1739,11,2,5,-220378405,-608302449,856480255,27650825,24829
1418450560691,-585,-535,-1719,12,2,6,-220367525,-608293960,856490262,27614312,24834
1418450560692,-593,-537,-1727,12,1,2,-220354584,-608294456,856494285,27581825,24839
1418450560696,-584,-525,-1728,11,2,1,-220345945,-608296588,856496012,27550177,24844
1418450560697,-583,-523,-1728,11,1,2,-220333472,-608296515,856500274,27519035,24849
1418450560699,-577,-525,-1728,12,2,1,-220321374,-608299396,856502450,27484466,24854
1418450560699,-585,-526,-1732,11,1,1,-220308197,-608301775,856505113,27454437,24859
1418450560701,-584,-522,-1739,11,3,2,-220300262,-608301857,856508196,27420098,24865
1418450560702,-584,-527,-1723,15,3,3,-220285238,-608302046,856513345,27375698,24870
1418450560721,-580,-527,-1730,17,3,3,-220268076,-608303346,856518380,27327343,24875
1418450560722,-577,-527,-1733,17,4,3,-220252495,-608304858,856522898,27277631,24880
1418450560724,-581,-524,-1736,18,2,3,-220230318,-608306903,856528693,27229095,24885
1418450560724,-567,-530,-1747,18,2,3,-220208179,-608308850,856534561,27179981,24890
1418450560730,-574,-521,-1744,15,3,2,-220191685,-608311834,856538007,27138219,24895
1418450560730,-576,-521,-1734,13,0,3,-220171882,-608310904,856544843,27103946,24900
1418450560763,-589,-525,-1738,11,1,4,-220158350,-608306485,856552471,27071962,24906
1418450560763,-565,-526,-1729,10,0,3,-220145337,-608303425,856558875,27043924,24911
1418450560765,-578,-520,-1737,8,-2,2,-220127624,-608302448,856564754,27023865,24916
1418450560765,-576,-515,-1735,4,-5,5,-220110189,-608291763,856577118,27014479,24921
1418450560767,-575,-517,-1730,2,-5,3,-220095456,-608284472,856586207,27010497,24926
1418450560768,-575,-524,-1723,-1,-6,3,-220083587,-608275357,856595579,27015279,24931
1418450560770,-577,-519,-1736,-2,-8,3,-220073465,-608264999,856605166,27026971,24936
1418450560770,-581,-517,-1745,-4,-8,3,-220065821,-608253465,856614829,27042511,24941
1418450560803,-573,-514,-1742,-6,-9,3,-220058938,-608240631,856625041,27063693,24946
1418450560803,-578,-522,-1735,-7,-10,3,-220050623,-608227292,856635846,27089062,24952
1418450560805,-583,-512,-1736,-9,-10,2,-220046783,-608214948,856644617,27120042,24957
1418450560805,-577,-522,-1738,-13,-12,1,-220044562,-608202217,856652877,27162618,24962
1418450560808,-585,-521,-1730,-13,-12,1,-220042329,-608189701,856660942,27206573,24967
1418450560808,-577,-515,-1737,-14,-12,1,-220042773,-608176348,856668858,27252173,24972
1418450560810,-574,-518,-1732,-13,-10,1,-220044708,-608163920,856675911,27292173,24977
1418450560810,-578,-521,-1750,-11,-12,2,-220039071,-608150295,856685800,27330786,24982
1418450560842,-571,-527,-1742,-10,-11,0,-220033631,-608141918,856692002,27366555,24987
1418450560843,-573,-522,-1737,-10,-10,0,-220030605,-608133769,856697436,27401825,24992
1418450560845,-569,-518,-1728,-9,-11,0,-220023788,-608126020,856703600,27435818,24998
1418450560845,-572,-520,-1730,-9,-9,-2,-220021209,-608122995,856705389,27467678,25003
1418450560847,-572,-514,-1750,-8,-9,-1,-220017389,-608118223,856708828,27496626,25008
1418450560848,-568,-520,-1736,-8,-9,1,-220012363,-608108968,856715820,27523681,25013
1418450560850,-568,-515,-1742,-10,-7,-1,-220015691,-608103298,856718009,27554178,25018
1418450560850,-565,-520,-1749,-10,-6,0,-220020763,-608095423,856721403,27581932,25023
1418450560875,-564,-520,-1744,-8,-4,1,-220026932,-608086729,856725345,27601949,25028
1418450560875,-562,-520,-1740,-6,-4,0,-220029937,-608081482,856727778,27618083,25033
1418450560901,-572,-536,-1743,-4,-2,2,-220034424,-608073014,856732400,27625402,25038
1418450560901,-565,-533,-1739,1,1,1,-220037082,-608069781,856734202,27619497,25044
1418450560904,-564,-538,-1736,4,1,-1,-220034099,-608072995,856733053,27608151,25049
1418450560904,-567,-532,-1735,5,2,-2,-220032078,-608079189,856729629,27594074,25054
1418450560906,-570,-524,-1734,6,4,-3,-220032871,-608088282,856723609,27574272,25059
1418450560906,-572,-530,-1730,8,4,-3,-220030241,-608098419,856717905,27548923,25064
1418450560909,-569,-524,-1725,7,4,-3,-220029989,-608107937,856711940,27526334,25069
1418450560909,-569,-515,-1730,9,5,-1,-220028516,-608114143,856708885,27496055,25074
1418450560911,-569,-527,-1740,8,4,-1,-220025568,-608119664,856706598,27468777,25079
1418450560911,-571,-528,-1738,8,3,-2,-220020540,-608127530,856703073,27444832,25084
1418450560944,-585,-528,-1745,6,3,-1,-220019170,-608131889,856700971,27424841,25090
1418450560944,-569,-526,-1732,6,2,-1,-220016457,-608135881,856699455,27405438,25095
1418450560946,-569,-521,-1733,6,1,0,-220010581,-608137815,856700146,27388099,25100
1418450560946,-570,-514,-1750,6,2,1,-220006697,-608137515,856701997,27368065,25105
1418450560949,-570,-520,-1738,4,1,1,-220002593,-608136005,856704592,27353362,25110
1418450560949,-568,-519,-1739,1,0,1,-220002032,-608132631,856707309,27347790,25115
1418450560951,-565,-523,-1724,1,0,2,-220001249,-608127024,856711685,27341672,25120
1418450560951,-575,-523,-1731,2,0,1,-219999483,-608124292,856714305,27334559,25125
1418450560974,-576,-530,-1730,1,0,2,-219999983,-608118495,856718488,27328391,25130
1418450560974,-572,-537,-1735,-1,-2,1,-219998050,-608114262,856721971,27328955,25136
1418450560976,-573,-528,-1732,-1,-3,-1,-219993525,-608114689,856722693,27333252,25141
1418450560976,-579,-524,-1735,-1,-4,0,-219990361,-608112150,856725147,27338307,25146
1418450560979,-570,-525,-1723,-1,-4,-3,-219987130,-608116303,856722838,27344279,25151
1418450560979,-567,-521,-1734,-3,-5,-2,-219984756,-608117081,856722500,27356657,25156
1418450561011,-569,-519,-1736,-4,-6,0,-219980803,-608112749,856726115,27371514,25161
1418450561011,-582,-521,-1729,-7,-4,0,-219986232,-608106755,856728397,27389620,25166
1418450561016,-577,-520,-1747,-9,-5,-1,-219994199,-608101454,856729341,27413800,25171
1418450561016,-580,-522,-1739,-10,-7,-2,-219997748,-608097924,856729961,27444224,25176
1418450561019,-588,-521,-1729,-11,-8,-1,-220001496,-608091343,856732588,27477983,25182
1418450561019,-579,-518,-1731,-12,-9,0,-220005808,-608081560,856737254,27514437,25187
1418450561021,-573,-522,-1745,-10,-9,0,-220005769,-608073156,856742194,27546647,25192
1418450561021,-578,-523,-1738,-13,-6,-2,-220016309,-608068028,856741966,27582737,25197
1418450561054,-580,-521,-1741,-13,-8,-2,-220023142,-608062595,856742807,27621835,25203
1418450561054,-573,-524,-1746,-15,-9,0,-220030986,-608051307,856747393,27665571,25207
1418450561056,-570,-516,-1719,-14,-10,2,-220034379,-608036182,856755878,27708217,25212
1418450561056,-570,-524,-1728,-12,-10,4,-220035213,-608017523,856767725,27744706,25217
1418450561058,-576,-525,-1724,-12,-13,3,-220029195,-608001024,856779596,27787355,25222
1418450561059,-580,-528,-1742,-13,-10,5,-220032597,-607979432,856792793,27825934,25228
1418450561061,-576,-532,-1725,-12,-10,5,-220034057,-607958453,856806129,27862117,25233
1418450561061,-576,-540,-1731,-10,-11,3,-220030562,-607943151,856816738,27897296,25238
1418450561084,-580,-538,-1734,-9,-11,3,-220025664,-607928518,856827283,27930927,25243
1418450561084,-575,-541,-1742,-8,-9,4,-220023878,-607912243,856838408,27957941,25248
1418450561086,-573,-542,-1718,-6,-8,2,-220020332,-607901964,856845874,27980535,25253
1418450561086,-566,-541,-1732,-4,-6,0,-220019012,-607897478,856848861,27996880,25258
1418450561088,-572,-532,-1731,-1,-3,1,-220018373,-607892937,856852104,28001244,25263
1418450561089,-573,-532,-1747,1,1,1,-220021368,-607889585,856853921,27994882,25268
1418450561121,-567,-534,-1741,6,0,2,-220013374,-607886879,856858446,27977977,25274
1418450561121,-566,-534,-1744,7,0,2,-220003634,-607884880,856862969,27959457,25279
1418450561123,-558,-523,-1741,6,2,2,-219999844,-607882487,856866273,27940043,25284
1418450561124,-562,-533,-1732,7,2,2,-219993155,-607880787,856869919,27917863,25289
1418450561126,-564,-533,-1746,6,3,2,-219991808,-607878489,856872572,27897108,25294
1418450561126,-562,-527,-1742,4,2,2,-219990917,-607874981,856875771,27882316,25299
1418450561128,-562,-525,-1739,4,4,4,-219994372,-607867045,856881151,27862700,25304
1418450561129,-571,-528,-1742,5,3,3,-219993869,-607861874,856885594,27842838,25309
1418450561161,-574,-529,-1717,5,2,4,-219992025,-607854167,856892158,27823653,25315
1418450561161,-574,-533,-1736,6,2,5,-219990191,-607844549,856900166,27801648,25320
1418450561163,-572,-531,-1735,5,1,3,-219986874,-607838976,856905511,27785002,25325
1418450561164,-566,-527,-1734,5,1,3,-219983297,-607833433,856910902,27768315,25330
1418450561166,-572,-526,-1736,5,0,3,-219976688,-607827931,856916988,27753296,25335
1418450561166,-573,-529,-1739,2,-1,3,-219971424,-607821045,856923526,27743929,25340
1418450561171,-574,-528,-1725,2,-1,3,-219966297,-607814172,856930014,27734772,25345
1418450561171,-582,-526,-1738,1,-2,4,-219961293,-607804243,856938533,27728851,25350
1418450561191,-571,-517,-1734,-1,-4,4,-219958837,-607792355,856947539,27730554,25355
1418450561191,-574,-523,-1729,-3,-7,2,-219951245,-607783824,856955143,27742774,25361
1418450561193,-576,-517,-1738,-5,-8,2,-219945508,-607773982,856962987,27761579,25366
1418450561194,-582,-527,-1725,-4,-9,2,-219935237,-607764618,856971702,27778927,25371
1418450561200,-586,-516,-1738,-5,-10,3,-219926195,-607752150,856982174,27800218,25376
1418450561200,-586,-520,-1735,-3,-8,3,-219917521,-607740912,856991979,27812256,25381
1418450561232,-580,-525,-1743,-1,-10,4,-219901523,-607728420,857004601,27822788,25386
1418450561232,-579,-533,-1738,-1,-8,3,-219889400,-607718581,857014405,27831534,25391
1418450561235,-576,-529,-1746,-1,-7,1,-219880075,-607713423,857020156,27840716,25396
1418450561235,-584,-525,-1739,-2,-6,1,-219873737,-607707848,857025423,27850331,25401
1418450561237,-568,-526,-1742,-3,-8,1,-219865275,-607701278,857031791,27864544,25407
1418450561237,-570,-531,-1730,-3,-6,0,-219859762,-607697548,857035435,27877319,25412
1418450561240,-567,-527,-1738,-3,-6,-1,-219855259,-607696010,857037232,27891096,25417
1418450561240,-564,-521,-1731,-2,-3,-1,-219855071,-607695374,857037523,27897501,25422
1418450561272,-561,-533,-1745,-2,-5,-1,-219850005,-607694582,857039081,27906808,25427
1418450561272,-564,-530,-1746,-1,-3,-2,-219847617,-607697036,857037768,27912482,25432
1418450561275,-571,-537,-1742,3,0,-4,-219843208,-607706461,857032413,27906444,25437
1418450561275,-562,-530,-1731,2,0,-4,-219841697,-607715151,857026754,27902904,25442
1418450561277,-570,-527,-1736,2,1,-3,-219841812,-607721740,857022239,27897183,25447
1418450561277,-561,-521,-1725,3,1,-4,-219840533,-607731016,857016259,27888870,25453
1418450561280,-570,-524,-1734,1,1,-4,-219841824,-607739235,857010218,27885245,25458
1418450561280,-563,-513,-1737,0,1,-2,-219845457,-607742159,857007307,27882331,25463
1418450561313,-572,-525,-1749,0,1,-2,-219847607,-607745202,857004712,27878818,25468
1418450561313,-568,-524,-1731,-1,1,-3,-219856200,-607749360,856999543,27879301,25473
1418450561316,-569,-534,-1743,-1,1,-1,-219865384,-607748936,856997500,27878909,25478
1418450561316,-571,-535,-1742,0,1,0,-219873161,-607746927,856997009,27876486,25483
1418450561318,-568,-526,-1726,1,3,1,-219880347,-607743833,856997660,27867256,25488
1418450561318,-573,-532,-1732,2,4,0,-219888054,-607743603,856996271,27854144,25493
1418450561321,-575,-520,-1736,5,4,-1,-219891374,-607747365,856993374,27834972,25499
1418450561321,-574,-528,-1739,7,5,0,-219893041,-607749993,856991968,27807696,25504
1418450561353,-574,-524,-1744,8,5,0,-219893357,-607753300,856990473,27778986,25509
1418450561353,-572,-527,-1741,8,8,-1,-219899950,-607759117,856985738,27745595,25514
1418450561356,-579,-532,-1731,10,6,0,-219898965,-607763727,856983849,27710758,25519
1418450561356,-581,-535,-1740,12,6,-1,-219896111,-607771594,856980254,27672010,25524
1418450561358,-573,-524,-1746,13,5,-2,-219889219,-607782282,856975692,27633296,25529
1418450561358,-579,-518,-1734,12,5,-1,-219882303,-607790263,856973016,27595748,25534
1418450561361,-582,-512,-1734,11,4,-3,-219875331,-607801896,856967629,27562345,25539
1418450561361,-579,-500,-1739,12,4,-2,-219866712,-607811724,856964061,27525284,25545
1418450561383,-580,-505,-1741,11,4,-1,-219858512,-607818712,856962375,27488940,25550
1418450561383,-584,-512,-1738,9,4,1,-219854010,-607819985,856963670,27456413,25555
1418450561386,-581,-516,-1734,8,3,1,-219849801,-607820530,856965266,27428222,25560
1418450561386,-577,-509,-1752,6,1,2,-219844513,-607817551,856969386,27407889,25565
1418450561389,-583,-503,-1736,5,1,3,-219839235,-607811865,856975385,27388751,25570
1418450561389,-584,-509,-1739,3,1,1,-219837997,-607809296,856977982,27374438,25575
1418450561422,-581,-517,-1734,2,0,2,-219836495,-607803819,856982586,27363945,25580
1418450561422,-585,-506,-1753,1,-1,2,-219833187,-607798363,856987555,27356106,25585
1418450561424,-583,-517,-1742,-1,-2,2,-219829580,-607791611,856993369,27352975,25591
1418450561424,-573,-517,-1745,-1,-4,2,-219826359,-607784252,856999348,27355035,25596
1418450561427,-570,-519,-1732,-5,-5,1,-219826200,-607777019,857004069,27369122,25601
1418450561427,-576,-510,-1727,-7,-3,3,-219834472,-607764202,857010566,27383848,25606
1418450561429,-575,-509,-1729,-7,-4,4,-219840753,-607748798,857019416,27398323,25611
1418450561429,-570,-525,-1744,-5,-4,5,-219843614,-607732312,857030076,27407605,25616
1418450561462,-571,-527,-1742,-6,-4,6,-219847991,-607713268,857042048,27420415,25621
1418450561462,-575,-529,-1747,-7,-5,6,-219852017,-607693541,857054464,27437260,25626
1418450561464,-579,-532,-1737,-6,-4,4,-219856807,-607678983,857063109,27451252,25631
1418450561464,-580,-528,-1737,-4,-4,4,-219859400,-607665458,857071729,27460745,25637
1418450561467,-578,-526,-1733,-1,-5,4,-219854694,-607653567,857081245,27464543,25642
1418450561467,-577,-532,-1729,0,-4,4,-219846638,-607642858,857090929,27463745,25647
1418450561469,-576,-538,-1737,0,-4,3,-219838994,-607634470,857098821,27464218,25652
1418450561469,-578,-535,-1746,-1,-3,2,-219838982,-607627449,857103706,27467219,25657
1418450561502,-568,-523,-1738,-2,-2,2,-219842425,-607619902,857108071,27470392,25662
1418450561502,-572,-531,-1729,-2,-4,2,-219840017,-607612327,857113867,27476383,25667
1418450561528,-577,-528,-1733,-2,-6,2,-219834354,-607604505,857120551,27486164,25672
1418450561528,-573,-517,-1741,-3,-6,5,-219830604,-607589133,857132101,27495794,25678
1418450561530,-576,-522,-1741,-5,-7,5,-219826359,-607572591,857144435,27510761,25683
1418450561531,-569,-519,-1736,-6,-7,3,-219824178,-607559987,857153328,27529454,25688
1418450561533,-569,-518,-1736,-9,-7,3,-219826264,-607545745,857162060,27555222,25693
1418450561533,-572,-519,-1733,-11,-8,5,-219829385,-607525686,857174490,27585895,25698
1418450561535,-566,-521,-1730,-10,-7,6,-219833726,-607503916,857187966,27611973,25703
1418450561536,-563,-518,-1739,-10,-7,6,-219837789,-607482283,857201395,27638685,25708
1418450561538,-562,-522,-1736,-9,-5,6,-219843895,-607461489,857213886,27659733,25713
1418450561538,-565,-525,-1735,-7,-4,7,-219849426,-607439687,857227441,27674488,25718
1418450561540,-567,-530,-1733,-4,-4,7,-219850614,-607419581,857241125,27682476,25724
1418450561541,-569,-529,-1730,-1,-4,6,-219843570,-607403996,857253928,27683896,25729
1418450561568,-566,-530,-1740,3,0,6,-219841074,-607390390,857264600,27671775,25734
1418450561568,-568,-538,-1723,4,-1,5,-219832289,-607380304,857274458,27657549,25739
1418450561570,-572,-529,-1727,6,-1,5,-219821788,-607371289,857284120,27639511,25744
1418450561571,-565,-531,-1732,9,0,3,-219809795,-607367956,857290337,27615275,25749
1418450561573,-573,-534,-1741,8,1,2,-219800877,-607366607,857294298,27592967,25754
1418450561573,-574,-526,-1743,6,-1,0,-219789351,-607368972,857296090,27577026,25759
1418450561581,-574,-522,-1741,3,-2,1,-219779962,-607367162,857300067,27568105,25764
1418450561582,-575,-524,-1744,0,-1,2,-219777629,-607361350,857304932,27563454,25770
1418450561613,-572,-516,-1739,-1,-3,1,-219776249,-607356583,857308591,27565682,25775
1418450561613,-565,-520,-1750,-1,-2,2,-219776688,-607349599,857313443,27565167,25780
1418450561615,-564,-524,-1738,1,-1,3,-219771425,-607342347,857320159,27558041,25785
1418450561615,-573,-518,-1736,-1,-4,3,-219767196,-607333170,857327631,27561540,25790
1418450561618,-566,-525,-1743,-3,-5,2,-219764388,-607324766,857334014,27570591,25795
1418450561618,-569,-520,-1745,-3,-3,2,-219765610,-607316762,857339146,27577545,25800
1418450561620,-565,-527,-1742,-4,-3,0,-219768162,-607312647,857341095,27587236,25805
1418450561621,-573,-528,-1743,-5,-4,1,-219770343,-607305711,857344999,27601228,25810
1418450561643,-572,-523,-1731,-7,-6,2,-219772011,-607294994,857351496,27621954,25816
1418450561643,-568,-524,-1734,-6,-4,2,-219776803,-607284929,857356918,27636806,25821
1418450561645,-572,-517,-1737,-3,-3,1,-219778502,-607279096,857360378,27644137,25826
1418450561645,-570,-519,-1741,-4,-3,0,-219781522,-607274839,857362322,27653344,25831
1418450561649,-576,-528,-1734,-3,-4,2,-219780535,-607266611,857368155,27661026,25836
1418450561649,-569,-533,-1729,-2,-4,1,-219779316,-607261121,857372147,27667507,25841
1418450561682,-560,-520,-1737,-2,-2,1,-219782582,-607255948,857374836,27671770,25846
1418450561682,-570,-525,-1730,0,0,1,-219782862,-607252202,857377501,27669162,25851
1418450561684,-574,-528,-1725,2,1,1,-219783762,-607249450,857379509,27660195,25856
1418450561684,-575,-528,-1740,2,2,2,-219787817,-607244382,857382418,27649070,25862
1418450561687,-574,-532,-1728,2,0,2,-219786666,-607239233,857386619,27641021,25867
1418450561687,-575,-531,-1727,0,2,0,-219793915,-607237606,857386075,27636016,25872
1418450561689,-572,-525,-1740,0,0,-1,-219800497,-607237566,857384438,27635338,25877
1418450561689,-576,-527,-1736,-3,-1,-2,-219806668,-607238678,857381886,27640973,25882
1418450561722,-582,-526,-1735,-3,-2,-2,-219811240,-607239609,857379823,27648160,25887
1418450561722,-574,-527,-1727,-2,0,-1,-219820984,-607238247,857378198,27651004,25892
1418450561724,-577,-522,-1733,-2,-1,-2,-219826470,-607239832,857375557,27654482,25897
1418450561724,-575,-522,-1721,-3,-2,0,-219831101,-607236123,857376820,27659948,25902
1418450561727,-577,-522,-1729,-3,-2,-2,-219835984,-607236957,857374756,27666799,25908
1418450561727,-577,-525,-1723,-4,-1,-3,-219844485,-607239562,857370476,27674706,25913
1418450561729,-573,-525,-1724,-4,-1,-4,-219853390,-607244433,857364458,27683526,25918
1418450561729,-577,-518,-1737,-4,-1,-4,-219861877,-607249406,857358466,27692620,25923
1418450561762,-576,-522,-1742,-2,-1,-2,-219866564,-607250921,857356116,27694920,25928
1418450561762,-579,-522,-1741,-2,-3,-3,-219866528,-607254651,857353272,27701472,25933
1418450561764,-575,-519,-1748,-3,-3,-3,-219868432,-607257716,857350334,27710098,25938
1418450561764,-571,-521,-1735,-3,-4,-3,-219867155,-607260826,857348129,27720284,25943
1418450561767,-576,-523,-1732,-3,-4,-3,-219866272,-607263966,857345784,27731025,25948
1418450561767,-572,-524,-1727,-3,-3,-2,-219868476,-607264771,857344377,27739419,25954
1418450561769,-574,-533,-1738,-2,-4,-2,-219866719,-607266160,857343581,27747556,25959
1418450561769,-573,-523,-1734,-3,-4,-3,-219866723,-607269319,857340964,27759231,25964
1418450561800,-569,-528,-1730,-1,-3,-2,-219865320,-607271377,857339736,27763247,25969
1418450561801,-570,-536,-1731,-1,-2,-3,-219862372,-607276407,857336829,27766362,25974
1418450561803,-561,-529,-1736,2,-2,-4,-219855048,-607285508,857332339,27763918,25979
1418450561803,-566,-524,-1743,3,0,-4,-219850784,-607294960,857326924,27758163,25984
1418450561805,-569,-524,-1748,5,0,-3,-219843162,-607303189,857323431,27746368,25989
1418450561805,-562,-524,-1737,3,-1,-3,-219834910,-607310716,857320478,27738234,25995
1418450561809,-568,-513,-1739,1,0,-2,-219833764,-607314381,857318270,27735314,26000
1418450561809,-569,-517,-1736,-1,-2,-2,-219833328,-607316600,857316754,27737062,26005
1418450561840,-578,-516,-1736,-3,-3,-2,-219834333,-607317557,857315551,27745332,26010
1418450561840,-569,-512,-1746,-7,-5,0,-219838148,-607311234,857318445,27764055,26015
1418450561843,-571,-508,-1735,-9,-6,2,-219841499,-607299350,857325229,27787972,26020
1418450561843,-572,-508,-1739,-12,-5,0,-219852301,-607290210,857327966,27817815,26025
1418450561845,-578,-520,-1742,-13,-6,2,-219862476,-607275842,857334480,27850279,26030
1418450561845,-570,-522,-1741,-11,-5,3,-219872931,-607260382,857341891,27876693,26035
1418450561849,-575,-525,-1749,-9,-8,4,-219872814,-607243784,857352803,27903570,26041
1418450561849,-586,-534,-1742,-10,-8,4,-219874571,-607226545,857363617,27932610,26046
1418450561880,-594,-530,-1738,-10,-8,3,-219878168,-607211337,857372495,27962369,26051
1418450561880,-584,-522,-1726,-11,-9,3,-219881770,-607195225,857381914,27995081,26056
1418450561883,-578,-526,-1724,-9,-9,3,-219881300,-607180401,857391614,28023214,26061
1418450561883,-579,-522,-1725,-9,-10,3,-219878347,-607165657,857401813,28053786,26066
1418450561885,-588,-523,-1729,-11,-10,5,-219878568,-607145130,857415196,28087271,26071
1418450561885,-579,-526,-1737,-12,-9,3,-219883231,-607128469,857424659,28122016,26076
1418450561889,-575,-528,-1732,-14,-9,3,-219890102,-607110917,857434005,28162199,26081
1418450561889,-572,-534,-1746,-15,-8,2,-219900799,-607095215,857441002,28204130,26087
1418450561920,-576,-531,-1746,-15,-8,2,-219910914,-607079703,857447987,28246760,26092
1418450561920,-585,-532,-1737,-15,-7,2,-219923483,-607064148,857454444,28287178,26097
1418450561923,-571,-520,-1731,-16,-8,1,-219936629,-607049947,857459659,28331581,26102
1418450561923,-578,-514,-1742,-17,-9,0,-219947278,-607037594,857464062,28380307,26107
1418450561925,-575,-517,-1727,-18,-10,-2,-219956831,-607029002,857465951,28432930,26112
1418450561925,-568,-520,-1742,-21,-12,0,-219967457,-607013930,857471833,28495044,26117
1418450561929,-574,-518,-1740,-22,-11,0,-219980797,-606998620,857477138,28558500,26122
1418450561929,-568,-528,-1729,-23,-12,-1,-219993907,-606984756,857481344,28625805,26127
1418450561960,-556,-513,-1737,-25,-11,1,-220013296,-606965365,857487738,28696340,26133
1418450561960,-564,-521,-1731,-26,-12,1,-220029574,-606945550,857495116,28770076,26138
1418450561963,-563,-527,-1738,-25,-10,3,-220050476,-606921721,857504359,28837349,26143
1418450561963,-568,-531,-1740,-22,-8,2,-220070956,-606902185,857510965,28895713,26148
1418450561965,-560,-542,-1736,-18,-6,4,-220090295,-606880491,857519844,28940539,26153
1418450561965,-566,-537,-1732,-16,-5,5,-220108910,-606857997,857529644,28980251,26158
1418450561973,-562,-545,-1737,-11,-3,4,-220124353,-606840670,857537105,29004993,26163
1418450561973,-565,-547,-1739,-3,0,4,-220135222,-606827853,857543218,29009929,26168
1418450561995,-575,-546,-1734,-1,-1,3,-220135280,-606819463,857549154,29009518,26173
1418450561995,-576,-539,-1723,4,0,2,-220132177,-606815502,857553137,28998165,26179
1418450561998,-580,-545,-1727,8,0,2,-220122796,-606813753,857557498,28976996,26184
1418450561998,-580,-533,-1743,10,1,-1,-220112789,-606820069,857556452,28951690,26189
1418450562000,-576,-541,-1730,12,0,-1,-220095733,-606827504,857556566,28922162,26194
1418450562000,-576,-540,-1724,12,-1,-3,-220075403,-606840083,857553821,28894302,26199
1418450562033,-584,-536,-1735,13,-1,-3,-220053694,-606853206,857551122,28864110,26204
1418450562033,-582,-535,-1733,13,-1,-2,-220032016,-606863894,857550191,28832312,26209
1418450562035,-580,-528,-1729,14,0,-3,-220012406,-606876972,857547068,28799552,26214
1418450562035,-583,-518,-1728,10,-1,0,-219995169,-606881345,857549287,28772998,26219
1418450562038,-575,-516,-1738,7,-2,0,-219980197,-606883744,857552076,28753733,26225
1418450562038,-577,-514,-1741,6,-3,0,-219963219,-606885721,857555536,28738686,26230
1418450562040,-575,-520,-1737,3,-2,0,-219953292,-606885975,857558243,28728521,26235
1418450562040,-578,-514,-1739,0,-3,2,-219946477,-606879889,857564369,28726415,26240
1418450562073,-571,-511,-1743,0,-3,2,-219939463,-606873705,857570642,28723495,26245
1418450562073,-579,-517,-1747,-1,-5,2,-219932377,-606866447,857577480,28726939,26250
1418450562075,-573,-518,-1742,-2,-4,1,-219930033,-606860831,857581898,28731631,26255
1418450562075,-570,-527,-1746,-1,-4,1,-219925832,-606855921,857586351,28734594,26260
1418450562078,-563,-524,-1740,-1,-3,1,-219920115,-606851748,857590711,28736344,26265
1418450562078,-565,-526,-1743,-1,-3,1,-219917763,-606847180,857594457,28739002,26271
1418450562080,-558,-528,-1729,-1,-3,-1,-219915422,-606847162,857594941,28742867,26276
1418450562080,-558,-518,-1726,-1,-2,-3,-219915379,-606851885,857591469,28747069,26281
1418450562113,-558,-513,-1733,-1,-3,-3,-219912567,-606856451,857588796,28751921,26286
1418450562113,-563,-521,-1742,-3,-2,-2,-219914693,-606857649,857587179,28758602,26291
1418450562115,-565,-522,-1745,-2,-2,-2,-219915727,-606859416,857585504,28763368,26296
1418450562115,-564,-514,-1725,0,1,-1,-219918272,-606860198,857584421,28759683,26301
1418450562118,-569,-524,-1729,2,0,-1,-219915677,-606861931,857584103,28752461,26306
1418450562118,-569,-520,-1738,3,0,1,-219912513,-606859647,857586868,28742387,26312
1418450562120,-571,-513,-1739,2,0,1,-219910277,-606856807,857589727,28734152,26317
1418450562120,-571,-529,-1742,1,1,2,-219911711,-606851089,857593707,28725167,26322
1418450562153,-572,-525,-1741,0,0,2,-219917241,-606844317,857597176,28722305,26327
1418450562153,-564,-530,-1749,-2,-1,1,-219921912,-606839112,857599622,28723474,26332
1418450562177,-572,-535,-1717,-2,-1,2,-219925853,-606831897,857603664,28725066,26337
1418450562178,-578,-525,-1727,-1,0,2,-219934678,-606824404,857606699,28725168,26342
1418450562180,-573,-541,-1735,-1,-1,2,-219939031,-606817274,857610696,28723131,26347
1418450562180,-574,-538,-1737,0,0,1,-219941853,-606813281,857612860,28721271,26352
1418450562182,-574,-545,-1740,0,0,1,-219944478,-606809258,857615108,28719035,26358
1418450562183,-568,-545,-1734,-1,-2,0,-219942754,-606807428,857616770,28721286,26363
1418450562185,-573,-533,-1730,3,0,0,-219940493,-606807617,857617463,28713916,26368
1418450562185,-571,-526,-1734,1,-2,-1,-219935099,-606809132,857617867,28711144,26373
1418450562187,-566,-528,-1749,2,-1,-1,-219929556,-606811338,857617970,28703903,26378
1418450562188,-571,-524,-1747,-1,-1,0,-219927879,-606809726,857619558,28703387,26383
1418450562190,-568,-526,-1739,-2,-2,1,-219929814,-606804501,857622667,28706119,26388
1418450562190,-569,-523,-1740,-3,-1,1,-219935889,-606798804,857625011,28709978,26393
1418450562224,-568,-525,-1731,-2,-1,1,-219940198,-606793656,857627508,28711180,26398
1418450562224,-570,-525,-1728,0,-1,2,-219937922,-606787888,857632316,28706885,26404
1418450562226,-568,-527,-1728,0,-2,1,-219933617,-606784262,857636060,28704671,26409
1418450562226,-570,-520,-1741,-1,-1,1,-219933155,-606780187,857639102,28703465,26414
1418450562234,-564,-531,-1740,0,0,0,-219934010,-606778459,857640210,28700317,26419
1418450562234,-573,-519,-1743,0,0,1,-219935136,-606774654,857642688,28698099,26424
1418450562252,-566,-517,-1738,-1,-2,1,-219935513,-606769913,857645951,28697945,26429
1418450562253,-564,-534,-1742,-1,-3,2,-219933159,-606762939,857651448,28699155,26434
1418450562255,-567,-522,-1743,-3,-3,2,-219934733,-606754970,857656429,28706718,26439
1418450562255,-575,-525,-1729,-6,-4,1,-219938261,-606747311,857660433,28721936,26444
1418450562257,-575,-522,-1724,-9,-4,2,-219948315,-606735352,857665602,28743229,26450
1418450562258,-581,-525,-1737,-13,-8,3,-219955820,-606718410,857674454,28779265,26455
1418450562260,-576,-526,-1740,-15,-9,4,-219964451,-606697883,857685369,28820671,26460
1418450562260,-580,-523,-1729,-16,-9,3,-219974077,-606679197,857694616,28865367,26465
1418450562292,-577,-522,-1721,-20,-9,4,-219990949,-606655698,857705133,28918087,26470
1418450562293,-581,-512,-1736,-19,-10,3,-220003888,-606635008,857714668,28970870,26475
1418450562295,-579,-528,-1741,-20,-9,3,-220019725,-606613735,857723890,29022939,26480
1418450562295,-576,-532,-1737,-20,-11,2,-220031491,-606594765,857732338,29080486,26485
1418450562297,-578,-532,-1744,-20,-9,4,-220048146,-606571450,857742731,29134239,26490
1418450562298,-580,-531,-1737,-16,-8,4,-220060458,-606550545,857752900,29177031,26496
1418450562300,-579,-535,-1726,-10,-6,2,-220067945,-606537783,857759091,29203847,26501
1418450562300,-569,-539,-1752,-6,-6,0,-220069508,-606531915,857762180,29223224,26506
1418450562332,-574,-537,-1743,-1,-5,1,-220063428,-606527191,857766852,29229904,26511
1418450562333,-577,-538,-1744,2,-2,1,-220056227,-606524779,857770616,29223721,26516
1418450562335,-572,-541,-1737,6,0,0,-220048964,-606526505,857771797,29207922,26521
1418450562335,-564,-529,-1731,10,1,-2,-220037444,-606535319,857769360,29183245,26526
1418450562337,-564,-525,-1743,12,2,0,-220023940,-606540898,857769987,29150648,26531
1418450562338,-567,-524,-1724,13,1,-1,-220005629,-606549317,857769856,29117513,26536
1418450562340,-560,-524,-1740,12,0,2,-219988025,-606550028,857774926,29086344,26542
1418450562340,-558,-516,-1736,8,0,0,-219975317,-606553229,857776614,29065892,26547
1418450562372,-573,-519,-1734,3,-1,1,-219966375,-606551700,857780357,29054999,26552
1418450562373,-576,-524,-1730,-1,-2,2,-219963352,-606545111,857785842,29053519,26557
1418450562375,-569,-527,-1735,-2,-3,3,-219964422,-606535000,857792622,29056327,26562
1418450562375,-568,-517,-1715,-3,-2,3,-219968696,-606524598,857798738,29060564,26567
1418450562377,-579,-523,-1735,-1,-2,4,-219966167,-606513434,857807360,29058193,26572
1418450562378,-564,-522,-1733,-1,-5,3,-219961020,-606503706,857815442,29061604,26577
1418450562380,-568,-535,-1734,-1,-4,4,-219952998,-606492622,857825284,29063126,26582
1418450562380,-561,-530,-1744,-1,-4,3,-219946040,-606483812,857833192,29066220,26588
1418450562412,-566,-528,-1736,-3,-5,2,-219942410,-606475727,857839484,29076696,26593
1418450562412,-561,-533,-1728,-3,-5,1,-219939424,-606469745,857844121,29087254,26598
1418450562415,-571,-522,-1739,-3,-4,3,-219939126,-606459374,857851235,29095918,26603
1418450562415,-569,-525,-1735,-4,-7,4,-219933354,-606445656,857861960,29109262,26608
1418450562417,-572,-525,-1744,-6,-6,1,-219933065,-606437740,857867002,29127777,26613
1418450562418,-571,-521,-1731,-8,-7,0,-219933482,-606430840,857870923,29152782,26618
1418450562420,-573,-524,-1734,-8,-8,1,-219931979,-606421497,857877036,29178569,26624
1418450562420,-569,-519,-1743,-10,-7,1,-219936218,-606411046,857882355,29207434,26628
1418450562452,-575,-525,-1730,-10,-5,2,-219943983,-606398584,857888329,29232206,26634
1418450562453,-566,-533,-1737,-8,-7,1,-219945427,-606389235,857893741,29256463,26639
1418450562455,-565,-534,-1743,-6,-4,1,-219949834,-606381598,857897456,29272677,26644
1418450562455,-565,-528,-1744,-4,-5,1,-219948404,-606375120,857901944,29286059,26649
1418450562457,-567,-530,-1747,-4,-5,2,-219946626,-606366326,857908199,29298256,26654
1418450562457,-568,-523,-1737,-5,-3,1,-219951119,-606359368,857911560,29310125,26659
1418450562460,-569,-523,-1735,-8,-6,0,-219953657,-606352575,857914909,29333580,26664
1418450562460,-573,-520,-1731,-10,-5,1,-219961976,-606342366,857919110,29359335,26669
1418450562484,-575,-516,-1729,-8,-5,2,-219967510,-606330904,857925106,29379374,26674
1418450562484,-569,-524,-1733,-8,-6,2,-219970785,-606319278,857931759,29400497,26680
1418450562486,-577,-521,-1743,-8,-5,0,-219975947,-606312516,857934465,29422356,26685
1418450562486,-567,-527,-1745,-11,-5,0,-219986008,-606303844,857937061,29450132,26690
1418450562489,-569,-520,-1737,-12,-5,1,-219997123,-606292589,857941109,29480883,26695
1418450562489,-575,-519,-1729,-12,-6,0,-220005999,-606283400,857944220,29513046,26700
1418450562521,-569,-529,-1726,-11,-4,0,-220018702,-606274753,857946173,29539210,26705
1418450562521,-570,-524,-1731,-7,-1,1,-220032101,-606266588,857948058,29552221,26710
1418450562523,-570,-532,-1745,-4,-2,0,-220037819,-606262362,857949311,29559980,26715
1418450562524,-569,-538,-1732,-2,-1,2,-220042571,-606254950,857953292,29561072,26720
1418450562526,-571,-526,-1740,2,2,0,-220046193,-606254592,857952938,29551714,26726
1418450562526,-571,-535,-1746,4,2,0,-220045624,-606255334,857953087,29536418,26731
1418450562533,-571,-531,-1738,4,2,1,-220045407,-606253882,857954686,29521386,26736
1418450562534,-574,-528,-1735,5,3,0,-220045920,-606255308,857954189,29502706,26741
1418450562540,-576,-541,-1746,5,5,1,-220051312,-606254499,857954168,29479731,26746
1418450562540,-571,-536,-1747,8,6,-1,-220054453,-606260195,857950340,29450530,26751
1418450562565,-577,-534,-1732,8,4,-1,-220052202,-606265832,857947830,29424430,26756
1418450562565,-566,-526,-1725,8,5,-1,-220053390,-606271301,857944628,29396200,26761
1418450562567,-574,-533,-1733,9,2,-1,-220044937,-606277297,857943436,29370583,26766
1418450562567,-571,-539,-1722,8,3,-2,-220041094,-606284969,857939831,29346299,26772
1418450562570,-577,-534,-1735,4,2,-2,-220042065,-606290263,857936273,29333652,26777
1418450562570,-566,-522,-1728,4,2,-2,-220042638,-606295460,857932920,29320008,26782
1418450562602,-573,-520,-1739,4,2,-2,-220041787,-606300808,857929837,29306018,26787
1418450562602,-578,-535,-1731,5,1,0,-220037172,-606301980,857930759,29289426,26792
1418450562605,-569,-529,-1727,3,0,2,-220035453,-606297256,857934893,29279023,26797
1418450562605,-577,-536,-1735,3,-1,1,-220028749,-606295482,857938221,29268618,26802
1418450562607,-571,-533,-1742,4,-2,1,-220018933,-606294114,857942081,29257613,26807
1418450562607,-574,-529,-1733,2,-3,1,-220008987,-606291664,857946524,29252884,26813
1418450562610,-570,-542,-1743,5,1,1,-220005415,-606290547,857948785,29236581,26818
1418450562610,-573,-537,-1744,9,1,-2,-219995119,-606298865,857946303,29214400,26823
1418450562642,-574,-525,-1745,11,1,-2,-219981510,-606308258,857944089,29186947,26828
1418450562642,-571,-525,-1741,12,3,-3,-219970070,-606320585,857939454,29153321,26833
1418450562645,-573,-528,-1734,11,1,-4,-219955523,-606334505,857934272,29126047,26838
1418450562645,-567,-531,-1739,12,1,-4,-219940080,-606348940,857929025,29096695,26843
1418450562647,-572,-524,-1739,12,1,-4,-219924041,-606363568,857923770,29068044,26848
1418450562647,-560,-518,-1746,10,0,-1,-219909203,-606369928,857923933,29042788,26853
1418450562650,-565,-514,-1743,6,-1,-1,-219895113,-606374749,857924698,29026231,26859
1418450562650,-562,-514,-1748,2,-1,-1,-219887840,-606377064,857925201,29018090,26864
1418450562672,-562,-497,-1749,-1,-2,-1,-219882613,-606377647,857926111,29018604,26869
1418450562672,-561,-507,-1743,-3,-2,2,-219883630,-606369598,857931461,29020925,26874
1418450562675,-569,-509,-1746,-7,-5,5,-219885313,-606352170,857942818,29036563,26879
1418450562675,-567,-516,-1745,-9,-5,6,-219891015,-606331122,857955581,29055789,26884
1418450562678,-575,-520,-1733,-13,-6,4,-219901039,-606312308,857965224,29087770,26889
1418450562679,-581,-526,-1737,-15,-8,6,-219911441,-606287356,857978885,29126269,26894
1418450562711,-582,-525,-1736,-16,-9,5,-219921823,-606263938,857991306,29169377,26899
1418450562711,-583,-531,-1736,-18,-12,5,-219928651,-606239077,858005342,29221720,26905
1418450562714,-581,-530,-1734,-20,-12,6,-219939251,-606210767,858020690,29278545,26910
1418450562714,-590,-533,-1743,-21,-12,5,-219951233,-606184181,858034361,29338276,26915
1418450562717,-581,-536,-1739,-22,-13,5,-219963113,-606156781,858048509,29401481,26920
1418450562717,-583,-548,-1730,-22,-10,4,-219981323,-606132107,858059217,29461364,26925
1418450562719,-577,-536,-1727,-19,-10,2,-219995901,-606113728,858066562,29516635,26930
1418450562719,-563,-535,-1733,-14,-8,2,-220005811,-606098485,858073417,29556498,26935
1418450562752,-571,-532,-1736,-9,-9,1,-220003644,-606088743,858079769,29587976,26940
1418450562752,-579,-535,-1728,-6,-8,1,-219999318,-606080641,858085838,29610091,26945
1418450562754,-568,-531,-1744,-2,-7,-1,-219991977,-606079307,858088238,29622393,26951
1418450562754,-570,-541,-1740,-2,-5,-1,-219987171,-606078466,858089741,29631745,26956
1418450562757,-560,-529,-1737,-1,-4,-1,-219984047,-606078278,858090456,29638060,26961
1418450562757,-555,-524,-1741,0,-3,1,-219976328,-606074842,858094858,29638182,26966
1418450562759,-563,-519,-1740,-1,-3,1,-219973158,-606070426,858098689,29641100,26971
1418450562759,-564,-518,-1728,-3,-3,2,-219973762,-606062323,858104055,29646949,26976
1418450562792,-570,-525,-1742,-3,-3,2,-219974978,-606054118,858109339,29652706,26981
1418450562792,-563,-529,-1751,-3,-1,3,-219981153,-606043767,858114994,29654817,26986
1418450562818,-557,-539,-1738,-2,-1,5,-219985042,-606029679,858123964,29654300,26991
1418450562818,-564,-533,-1745,-2,-2,6,-219987435,-606013355,858134810,29656308,26997
1418450562821,-559,-546,-1742,-1,-1,5,-219990342,-605999818,858143708,29653870,27002
1418450562821,-567,-541,-1731,-2,-1,4,-219995289,-605988163,858150598,29655957,27007
1418450562823,-565,-539,-1735,1,1,5,-219998709,-605975770,858158748,29648002,27012
1418450562823,-570,-538,-1721,3,1,5,-219998396,-605964610,858167143,29635399,27017
1418450562826,-579,-539,-1738,7,1,4,-219992625,-605957868,858174126,29613886,27022
1418450562826,-578,-549,-1739,9,2,4,-219985975,-605952268,858180762,29585545,27027
1418450562828,-574,-535,-1736,9,2,1,-219979581,-605953618,858182328,29560022,27032
1418450562828,-569,-542,-1726,9,2,0,-219972009,-605957247,858182601,29534024,27037
1418450562831,-575,-539,-1733,10,2,-1,-219963217,-605963852,858181105,29507445,27043
1418450562831,-567,-534,-1738,9,1,-2,-219953698,-605971958,858178607,29484596,27048
1418450562856,-575,-525,-1734,9,0,0,-219940764,-605975607,858180113,29462243,27053
1418450562856,-569,-513,-1726,10,1,0,-219928868,-605979648,858181258,29434575,27058
1418450562858,-571,-525,-1730,14,1,0,-219909605,-605986056,858182955,29397075,27063
1418450562858,-564,-539,-1744,14,0,0,-219888810,-605992435,858184972,29362214,27068
1418450562862,-569,-527,-1733,13,-1,0,-219865298,-605999075,858187383,29330762,27073
1418450562862,-573,-529,-1743,13,0,-1,-219845855,-606007232,858187685,29299118,27078
1418450562894,-568,-523,-1734,11,0,-2,-219829576,-606016479,858186234,29272492,27083
1418450562894,-572,-520,-1727,9,1,-1,-219818497,-606022378,858185739,29248073,27089
1418450562897,-570,-522,-1742,7,-1,-2,-219804906,-606029665,858184716,29229228,27094
1418450562897,-577,-518,-1733,5,0,0,-219797817,-606030853,858186187,29214704,27099
1418450562899,-573,-522,-1737,2,-1,0,-219792500,-606030546,858188078,29205540,27104
1418450562899,-567,-523,-1740,-1,-2,0,-219793333,-606028042,858189611,29206173,27109
1418450562902,-575,-525,-1731,-3,-2,-2,-219796606,-606029108,858187786,29213053,27114
1418450562902,-569,-534,-1745,-4,-3,0,-219800657,-606024705,858189541,29222344,27119
1418450562934,-566,-523,-1741,-3,-2,0,-219804715,-606021248,858190718,29228952,27124
1418450562935,-565,-532,-1734,0,1,1,-219807804,-606017398,858192813,29224047,27129
1418450562937,-564,-531,-1743,0,2,0,-219817816,-606015442,858191775,29219786,27135
1418450562937,-571,-526,-1725,0,2,-1,-219823254,-606016352,858189890,29215355,27140
1418450562939,-568,-530,-1738,2,4,-1,-219831234,-606018281,858186929,29202256,27145
1418450562939,-563,-523,-1730,6,3,-1,-219829815,-606022650,858184891,29182156,27150
1418450562942,-566,-524,-1734,8,3,-2,-219824581,-606030507,858181512,29157798,27155
1418450562942,-576,-529,-1739,9,4,-1,-219820240,-606036700,858179234,29128823,27160
1418450562974,-572,-529,-1729,9,4,-2,-219816811,-606044999,858175223,29100195,27165
1418450562974,-573,-521,-1733,9,1,-3,-219806570,-606055388,858171284,29077354,27170
1418450562977,-571,-519,-1739,8,1,-4,-219797264,-606067428,858165870,29056509,27175
1418450562977,-565,-516,-1730,5,1,-3,-219792280,-606075499,858161943,29041851,27181
1418450562979,-571,-513,-1742,2,1,-2,-219791917,-606079601,858159416,29033659,27186
1418450562979,-576,-512,-1739,-1,-3,-1,-219789394,-606079338,858160176,29035785,27191
1418450562982,-565,-517,-1739,-4,-1,1,-219796981,-606072758,858162739,29039932,27196
1418450562982,-570,-516,-1724,-3,1,-1,-219808289,-606071200,858160829,29043293,27201
1418450563014,-571,-522,-1729,0,1,0,-219815952,-606068898,858160643,29038855,27206
1418450563014,-573,-535,-1741,0,1,0,-219819937,-606067147,858161015,29034234,27211
1418450563017,-567,-533,-1742,2,2,0,-219823397,-606066749,858160740,29024488,27216
1418450563017,-567,-544,-1728,7,2,-2,-219817907,-606073988,858157702,29004711,27222
1418450563024,-570,-542,-1733,11,4,-3,-219811830,-606085993,858151806,28974328,27227
1418450563024,-574,-544,-1745,13,2,-3,-219797863,-606098960,858147311,28942174,27232
1418450563027,-575,-538,-1732,14,5,-3,-219789053,-606112731,858141169,28902738,27237
1418450563027,-569,-524,-1734,17,5,-5,-219775596,-606132691,858132055,28857056,27242
1418450563029,-574,-533,-1729,18,6,-5,-219761286,-606153383,858122801,28806530,27247
1418450563029,-568,-526,-1738,17,5,-6,-219747503,-606175605,858112159,28761070,27252
1418450563062,-575,-522,-1738,17,5,-7,-219732221,-606200267,858100164,28715891,27257
1418450563062,-568,-524,-1744,16,5,-6,-219719025,-606221865,858089767,28671540,27262
1418450563064,-575,-514,-1743,16,4,-6,-219702743,-606243605,858079982,28629475,27268
1418450563064,-574,-517,-1734,16,4,-7,-219686451,-606267393,858068778,28586539,27273
1418450563067,-575,-514,-1732,15,3,-6,-219670107,-606288223,858059548,28547356,27278
1418450563067,-572,-522,-1735,15,2,-6,-219651484,-606308924,858050949,28509449,27283
1418450563069,-571,-507,-1737,12,3,-4,-219640235,-606323515,858044609,28476607,27288
1418450563069,-572,-513,-1735,9,2,-3,-219630490,-606333933,858040616,28450249,27293
1418450563102,-573,-519,-1743,9,2,-2,-219621393,-606342068,858038071,28423846,27298
1418450563102,-571,-529,-1738,7,2,0,-219615762,-606344525,858038522,28401322,27303
1418450563104,-570,-521,-1742,5,3,2,-219616490,-606341399,858041192,28381748,27308
1418450563104,-569,-530,-1740,7,3,1,-219613122,-606341727,858042626,28357458,27314
1418450563107,-575,-536,-1749,8,4,2,-219611076,-606341487,858044239,28329590,27319
1418450563107,-576,-533,-1742,11,5,1,-219606886,-606345310,858043786,28293956,27324
1418450563109,-574,-545,-1748,14,9,1,-219607237,-606351105,858041223,28244699,27329
1418450563109,-574,-546,-1743,19,10,2,-219602157,-606357776,858039835,28183120,27334
1418450563120,-577,-538,-1734,22,12,0,-219596960,-606370900,858034198,28112781,27339
1418450563120,-584,-545,-1732,26,11,-1,-219583152,-606388398,858027924,28034588,27344
1418450563149,-585,-533,-1741,28,10,-1,-219565015,-606406855,858022161,27953673,27349
1418450563149,-574,-519,-1729,27,9,0,-219545186,-606422323,858018868,27874801,27354
1418450563154,-570,-531,-1730,29,11,-1,-219525322,-606441499,858013205,27788225,27360
1418450563154,-570,-523,-1738,29,14,0,-219512737,-606458790,858007130,27697710,27365
1418450563157,-564,-526,-1740,29,13,1,-219497052,-606473720,858003500,27607428,27370
1418450563157,-579,-528,-1738,28,14,4,-219485036,-606481459,858004015,27516807,27375
1418450563159,-570,-522,-1730,30,14,3,-219471318,-606492293,858002921,27421383,27380
1418450563159,-566,-528,-1725,31,16,1,-219459597,-606508559,857997600,27321749,27385
1418450563192,-585,-529,-1738,32,14,2,-219442023,-606523084,857994953,27223420,27390
1418450563192,-575,-518,-1732,33,12,2,-219419442,-606537675,857993539,27124748,27395
1418450563194,-580,-521,-1739,31,10,1,-219394139,-606553372,857991771,27034166,27400
1418450563194,-579,-516,-1733,28,8,-1,-219369286,-606571682,857987678,26954774,27406
1418450563197,-577,-505,-1731,25,8,-1,-219349172,-606588197,857983432,26881883,27411
1418450563197,-571,-504,-1729,23,7,-1,-219329231,-606603439,857979869,26814280,27416
1418450563199,-569,-503,-1745,19,4,-1,-219308390,-606616257,857977797,26761030,27421
1418450563199,-568,-506,-1741,17,4,-2,-219289695,-606630329,857974126,26712904,27426
1418450563232,-571,-503,-1736,13,3,-2,-219275477,-606642014,857970648,26675942,27431
1418450563232,-571,-504,-1737,9,2,-1,-219265841,-606648886,857969098,26648688,27436
1418450563234,-570,-496,-1743,7,2,1,-219259597,-606650034,857970619,26624939,27441
1418450563234,-569,-500,-1747,5,2,1,-219255699,-606650023,857972241,26605020,27446
1418450563236,-572,-502,-1740,2,0,1,-219252047,-606648193,857974759,26595637,27452
1418450563237,-572,-499,-1748,0,0,0,-219252297,-606647380,857975400,26591437,27457
1418450563239,-568,-501,-1754,-1,0,2,-219257627,-606640929,857978685,26588682,27462
1418450563239,-577,-509,-1735,-3,0,1,-219265585,-606635739,857980233,26591528,27467
1418450563272,-564,-519,-1738,0,3,0,-219277728,-606634522,857978238,26583514,27472
1418450563272,-566,-510,-1742,1,2,-1,-219281289,-606637010,857975782,26576637,27477
1418450563274,-581,-523,-1750,2,3,0,-219285010,-606637787,857974666,26564229,27482
1418450563274,-569,-523,-1739,3,6,1,-219295845,-606636847,857973179,26544275,27487
1418450563277,-574,-519,-1744,5,6,-1,-219302739,-606641869,857968560,26521844,27492
1418450563277,-571,-523,-1748,7,6,-1,-219306361,-606647945,857964195,26494074,27498
1418450563279,-573,-522,-1732,8,6,-1,-219308150,-606654728,857959851,26464615,27503
1418450563279,-574,-519,-1738,7,6,0,-219312520,-606658495,857956931,26436721,27508
1418450563312,-577,-517,-1732,8,7,1,-219317238,-606660625,857955228,26403953,27513
1418450563312,-572,-511,-1742,8,7,-1,-219322253,-606667206,857950275,26371992,27518
1418450563314,-572,-521,-1741,6,8,0,-219331530,-606670547,857946459,26342122,27523
1418450563314,-574,-518,-1737,6,7,2,-219339339,-606669309,857946210,26313699,27528
1418450563316,-577,-521,-1740,4,8,-1,-219352639,-606673737,857940418,26289582,27533
1418450563317,-570,-522,-1746,6,10,1,-219367729,-606674871,857936769,26256569,27538
1418450563319,-577,-521,-1742,9,11,2,-219379451,-606675756,857934415,26215075,27544
1418450563319,-569,-521,-1743,12,10,2,-219384808,-606678127,857932811,26167787,27549
1418450563352,-573,-521,-1746,13,10,2,-219387765,-606681284,857931316,26118796,27554
1418450563352,-573,-523,-1736,13,10,0,-219390803,-606688934,857926593,26070693,27559
1418450563354,-579,-524,-1743,14,10,-2,-219392696,-606701693,857918571,26021747,27564
1418450563354,-577,-521,-1731,13,10,-2,-219396476,-606713774,857910486,25974739,27569
1418450563356,-574,-523,-1720,13,9,-1,-219398248,-606723460,857904576,25928696,27574
1418450563357,-575,-524,-1730,15,9,-2,-219397104,-606736620,857897056,25879159,27579
1418450563359,-580,-540,-1732,16,7,-1,-219389513,-606747987,857892441,25829974,27584
1418450563359,-578,-534,-1731,18,9,-1,-219384637,-606760656,857886405,25774214,27590
1418450563391,-575,-542,-1734,21,11,-1,-219378970,-606775219,857879542,25707949,27595
1418450563392,-578,-540,-1746,29,14,-1,-219367317,-606794804,857871313,25619567,27600
1418450563394,-578,-543,-1745,35,18,-2,-219354607,-606820438,857859662,25511155,27605
1418450563394,-579,-538,-1739,41,21,-3,-219339229,-606852077,857844952,25385115,27610
1418450563396,-580,-529,-1741,46,23,-4,-219320341,-606888962,857827836,25244526,27615
1418450563396,-578,-532,-1745,53,26,-3,-219296490,-606927776,857811251,25081600,27620
1418450563399,-574,-525,-1756,56,29,-6,-219274260,-606975481,857788203,24909204,27625
1418450563399,-586,-523,-1748,61,31,-7,-219247112,-607028628,857762939,24722341,27630
1418450563431,-600,-544,-1760,64,34,-5,-219223463,-607078796,857739239,24521676,27636
1418450563432,-611,-562,-1755,68,35,-8,-219197468,-607138079,857709858,24313094,27641
1418450563458,-620,-580,-1742,74,37,-10,-219168602,-607205375,857675896,24089839,27646
1418450563458,-615,-593,-1736,87,38,-14,-219123337,-607289266,857635076,23838896,27651
1418450563460,-632,-614,-1744,106,41,-23,-219054288,-607405130,857578734,23546719,27656
1418450563460,-634,-635,-1729,129,46,-32,-218961395,-607555009,857505731,23200103,27661
1418450563463,-642,-651,-1741,156,56,-42,-218849285,-607744010,857411583,22783610,27666
1418450563463,-634,-658,-1743,192,70,-56,-218711191,-607986667,857288233,22271513,27671
1418450563465,-626,-659,-1744,234,85,-70,-218538107,-608286687,857135483,21648828,27676
1418450563465,-614,-652,-1735,278,103,-83,-218333329,-608642928,856953226,20905001,27682
1418450563468,-601,-629,-1752,328,125,-93,-218095977,-609052037,856744161,20017694,27687
1418450563468,-597,-602,-1749,379,144,-103,-217815127,-609514247,856510314,18987920,27692
1418450563470,-600,-574,-1774,432,165,-117,-217493320,-610039283,856243577,17809299,27697
1418450563470,-602,-554,-1786,482,184,-134,-217129838,-610631788,855939799,16492998,27702
1418450563496,-594,-550,-1813,529,203,-154,-216730370,-611296487,855593127,15048550,27707
1418450563496,-597,-547,-1821,571,222,-175,-216302310,-612032803,855200959,13490201,27712
1418450563501,-597,-542,-1840,613,241,-193,-215847649,-612833121,854767368,11815636,27717
1418450563502,-606,-541,-1858,650,260,-213,-215373442,-613698806,854288483,10037410,27723
1418450563504,-607,-534,-1874,678,278,-231,-214893208,-614619512,853767192,8176275,27728
1418450563505,-620,-519,-1906,693,292,-246,-214418109,-615580674,853210140,6266624,27733
1418450563512,-610,-474,-1915,704,306,-258,-213954527,-616572685,852622119,4314169,27738
1418450563513,-608,-419,-1939,705,317,-268,-213509108,-617585219,852008432,2344133,27743
1418450563543,-636,-384,-1964,683,327,-275,-213116807,-618598120,851374731,407059,27748
1418450563543,-635,-364,-1990,659,341,-282,-212794048,-619609770,850718334,-1499349,27753
1418450563546,-635,-358,-2035,632,351,-275,-212535055,-620587589,850064744,-3366149,27758
1418450563547,-639,-362,-2064,596,358,-257,-212347980,-621501960,849434161,-5172974,27763
1418450563549,-647,-374,-2101,569,363,-234,-212215134,-622346800,848835998,-6939075,27769
1418450563549,-656,-369,-2096,549,360,-212,-212107340,-623128688,848273259,-8665971,27774
1418450563550,-668,-363,-2117,539,356,-189,-212006635,-623850806,847748302,-10376978,27779
1418450563550,-670,-344,-2127,532,341,-171,-211882266,-624526671,847259378,-12058024,27784
1418450563576,-688,-331,-2166,532,328,-153,-211725844,-625160380,846805581,-13728784,27789
1418450563576,-679,-313,-2158,542,317,-129,-211525449,-625743944,846395452,-15418953,27794
1418450563579,-676,-328,-2207,564,309,-95,-211266787,-626261785,846043378,-17164835,27799
1418450563579,-690,-352,-2263,554,284,-75,-210965514,-626728812,845736687,-18854987,27804
1418450563582,-701,-364,-2308,528,248,-75,-210626400,-627181702,845448991,-20424025,27809
1418450563582,-684,-382,-2358,513,213,-91,-210233776,-627662823,845152918,-21890427,27815
1418450563614,-714,-427,-2365,498,177,-107,-209783248,-628173183,844849328,-23249914,27820
1418450563614,-733,-416,-2449,457,134,-133,-209311434,-628720499,844525935,-24427649,27825
1418450563616,-760,-375,-2486,323,79,-148,-208938290,-629229583,844216288,-25204910,27830
1418450563616,-770,-328,-2499,135,8,-148,-208718548,-629637668,843959115,-25445867,27835
1418450563618,-754,-282,-2482,-64,-83,-144,-208627101,-629931462,843772945,-25096021,27840
1418450563618,-745,-294,-2466,-244,-179,-137,-208617607,-630115373,843664475,-24188227,27845
1418450563621,-738,-365,-2486,-377,-279,-131,-208606739,-630217764,843628911,-22815927,27850
1418450563623,-760,-513,-2448,-462,-370,-144,-208537717,-630307212,843624163,-21085910,27855
1418450563652,-817,-610,-2482,-495,-451,-201,-208358520,-630509668,843564397,-19102366,27861
1418450563652,-839,-644,-2480,-514,-536,-274,-208033396,-630867095,843424626,-16888488,27866
1418450563654,-818,-665,-2464,-503,-630,-330,-207484723,-631357085,843237387,-14509920,27871
1418450563654,-810,-670,-2468,-457,-717,-367,-206664191,-631955549,843029073,-12065808,27876
1418450563657,-787,-687,-2496,-398,-792,-397,-205575565,-632652088,842804332,-9611790,27881
1418450563657,-770,-694,-2522,-337,-867,-432,-204213743,-633458427,842554207,-7147245,27886
1418450563663,-733,-680,-2544,-280,-937,-476,-202596522,-634390950,842260344,-4668134,27891
1418450563663,-697,-638,-2542,-225,-1002,-516,-200735004,-635438407,841926503,-2181196,27896
1418450563696,-668,-597,-2561,-170,-1055,-539,-198654884,-636560945,841574611,281347,27901
1418450563696,-641,-556,-2577,-130,-1106,-557,-196385557,-637738209,841211418,2746744,27907
1418450563697,-617,-528,-2570,-100,-1150,-570,-193959828,-638952673,840840827,5222797,27912
1418450563697,-600,-520,-2555,-80,-1189,-590,-191407810,-640213843,840446945,7728113,27917
1418450563701,-571,-510,-2542,-77,-1221,-619,-188776108,-641532355,840009131,10294803,27922
1418450563701,-537,-457,-2527,-75,-1243,-641,-186087433,-642891845,839533507,12905048,27927
1418450563701,-503,-420,-2516,-69,-1258,-637,-183347962,-644235828,839061572,15521140,27932
1418450563701,-488,-405,-2532,-61,-1269,-610,-180565134,-645513981,838630447,18122135,27937
1418450563734,-461,-351,-2505,-72,-1291,-590,-177749078,-646731942,838232083,20773584,27942
1418450563734,-451,-336,-2524,-101,-1294,-558,-174972022,-647855312,837877513,23474752,27947
1418450563739,-460,-327,-2496,-144,-1315,-539,-172219908,-648905652,837551050,26296423,27953
1418450563739,-445,-320,-2494,-183,-1334,-552,-169492291,-649955684,837195605,29240339,27958
1418450563741,-441,-323,-2461,-233,-1353,-578,-166804045,-651029726,836786968,32338558,27963
1418450563743,-437,-318,-2451,-269,-1371,-604,-164135862,-652133492,836324369,35558155,27968
1418450563744,-423,-317,-2404,-292,-1389,-626,-161463921,-653263467,835815225,38867202,27973
1418450563744,-417,-312,-2379,-306,-1411,-628,-158766279,-654378249,835295887,42245247,27978
1418450563774,-420,-300,-2370,-316,-1431,-613,-156041989,-655441494,834795163,45671514,27983
1418450563774,-428,-321,-2359,-329,-1452,-591,-153294874,-656435877,834325114,49150087,27988
1418450563777,-435,-342,-2305,-337,-1476,-577,-150511634,-657380407,833872556,52681257,27993
1418450563777,-440,-366,-2270,-346,-1497,-578,-147700129,-658307815,833409165,56268649,27999
1418450563779,-436,-385,-2246,-353,-1519,-591,-144852197,-659244943,832913985,59914486,28004
1418450563781,-420,-399,-2210,-356,-1543,-608,-141954046,-660201455,832380766,63614882,28009
1418450563782,-411,-400,-2174,-349,-1563,-616,-138997233,-661161391,831824817,67337686,28014
1418450563782,-375,-391,-2127,-334,-1585,-615,-135964494,-662106754,831263966,71063544,28019
1418450563814,-343,-395,-2100,-313,-1603,-602,-132853461,-663013816,830718795,74769155,28024
1418450563814,-316,-381,-2070,-286,-1614,-584,-129670861,-663874560,830196728,78427886,28029
1418450563816,-306,-362,-2021,-260,-1624,-564,-126420532,-664684106,829701279,82037687,28034
1418450563816,-298,-363,-2018,-238,-1631,-545,-123117953,-665443411,829229142,85601234,28039
1418450563822,-299,-338,-1987,-223,-1637,-531,-119777134,-666161244,828769634,89134920,28045
1418450563823,-285,-323,-1974,-215,-1642,-518,-116412366,-666837601,828319506,92650295,28050
1418450563823,-287,-311,-1946,-208,-1645,-505,-113028815,-667472824,827877774,96147862,28055
1418450563823,-282,-300,-1927,-204,-1650,-490,-109630213,-668060742,827447947,99636649,28060
1418450563854,-278,-302,-1891,-206,-1653,-468,-106232856,-668584810,827040328,103124844,28065
1418450563854,-270,-305,-1856,-209,-1658,-443,-102836662,-669037478,826660363,106619056,28070
1418450563856,-252,-327,-1807,-210,-1660,-419,-99444318,-669422445,826306008,110110416,28075
1418450563856,-235,-345,-1760,-210,-1660,-399,-96058288,-669749352,825969593,113597303,28080
1418450563859,-204,-365,-1724,-204,-1653,-382,-92682312,-670028588,825646066,117054515,28086
1418450563859,-174,-383,-1688,-193,-1643,-373,-89310315,-670280290,825322217,120468851,28091
1418450563861,-147,-378,-1665,-175,-1624,-365,-85949323,-670511447,824996945,123808965,28096
1418450563861,-100,-368,-1674,-149,-1603,-358,-82587527,-670727354,824671791,127051398,28101
1418450563890,-83,-359,-1655,-117,-1576,-345,-79226640,-670918964,824359043,130171260,28106
1418450563890,-56,-352,-1645,-82,-1549,-330,-75865638,-671082482,824064641,133160347,28111
1418450563892,-43,-346,-1639,-51,-1519,-314,-72517812,-671216497,823789340,136022823,28116
1418450563892,-30,-341,-1619,-25,-1488,-296,-69196544,-671316319,823536011,138766646,28121
1418450563895,-23,-330,-1609,-2,-1457,-281,-65906569,-671388417,823299176,141399757,28126
1418450563895,-21,-312,-1599,18,-1425,-267,-62651194,-671435178,823077481,143925657,28132
1418450563902,-9,-298,-1567,35,-1397,-257,-59429541,-671464078,822863814,146358369,28137
1418450563902,8,-288,-1562,52,-1368,-248,-56243152,-671478121,822656768,148698309,28142
1418450563935,30,-275,-1527,63,-1341,-242,-53096720,-671482693,822449697,150962685,28147
1418450563935,57,-262,-1495,70,-1314,-231,-49999130,-671466699,822250465,153160819,28152
1418450563940,85,-231,-1471,76,-1288,-222,-46948698,-671434481,822055819,155297433,28157
1418450563940,105,-220,-1448,81,-1255,-210,-43962268,-671383039,821870678,157360183,28162
1418450563942,120,-212,-1439,87,-1216,-197,-41053938,-671313026,821697320,159337426,28167
1418450563942,133,-204,-1421,92,-1177,-183,-38226548,-671222735,821538119,161230877,28172
1418450563945,147,-212,-1426,93,-1138,-164,-35489737,-671101394,821401158,163049200,28178
1418450563945,146,-205,-1423,90,-1102,-143,-32845974,-670943394,821289339,164807257,28183
1418450563965,149,-215,-1434,87,-1068,-123,-30290896,-670750743,821202103,166506800,28188
1418450563965,142,-236,-1421,87,-1034,-103,-27820051,-670524028,821141322,168142817,28193
1418450563967,143,-257,-1413,91,-1004,-83,-25419593,-670261875,821109711,169715089,28198
1418450563967,144,-275,-1407,98,-972,-65,-23086920,-669970239,821105384,171214270,28203
1418450563970,147,-287,-1394,117,-943,-49,-20792980,-669653277,821131027,172619473,28208
1418450563970,139,-300,-1385,150,-909,-33,-18523203,-669314396,821193317,173891261,28213
1418450564002,139,-312,-1378,192,-880,-22,-16249492,-668962712,821288555,175018455,28218
1418450564002,138,-314,-1360,239,-851,-13,-13961248,-668602877,821415863,175990797,28224
1418450564005,137,-310,-1354,291,-823,-8,-11644959,-668243392,821570947,176798890,28229
1418450564005,138,-308,-1328,344,-792,-6,-9303580,-667892247,821749310,177434402,28234
1418450564007,148,-297,-1335,397,-761,-1,-6938616,-667542543,821956477,177898466,28239
1418450564007,147,-286,-1333,446,-731,1,-4552033,-667200386,822185552,178200299,28244
1418450564010,138,-266,-1338,488,-702,3,-2155225,-666864843,822433618,178356622,28249
1418450564010,134,-250,-1357,520,-674,5,236105,-666535313,822696367,178389503,28254
1418450564043,132,-229,-1347,547,-652,9,2625382,-666204391,822975107,178320767,28259
1418450564043,144,-221,-1336,569,-634,16,5011602,-665863446,823272692,178169403,28264
1418450564046,152,-199,-1335,584,-616,26,7381227,-665505651,823590887,177953091,28270
1418450564046,164,-196,-1320,591,-597,39,9717128,-665125282,823931547,177685811,28275
1418450564048,180,-190,-1304,592,-579,51,12010281,-664723805,824290014,177385160,28280
1418450564048,191,-172,-1299,588,-558,63,14245871,-664302934,824664170,177056991,28285
1418450564073,205,-159,-1267,577,-537,77,16411009,-663858939,825054724,176715012,28290
1418450564073,206,-157,-1265,564,-513,94,18494180,-663386718,825466270,176360345,28295
1418450564100,216,-144,-1249,551,-487,111,20488837,-662887282,825899635,175988512,28300
1418450564100,215,-146,-1243,534,-458,127,22383588,-662364850,826351467,175603357,28305
1418450564102,218,-133,-1236,514,-432,145,24176606,-661813741,826824334,175217263,28310
1418450564102,221,-128,-1228,490,-408,163,25866836,-661233814,827316522,174841724,28316
1418450564112,217,-143,-1237,465,-388,180,27461248,-660625550,827825826,174486874,28321
1418450564112,222,-151,-1221,436,-367,196,28948822,-659991804,828349201,174160532,28326
1418450564113,241,-162,-1230,407,-348,214,30334659,-659327525,828889987,173867526,28331
1418450564113,243,-159,-1244,376,-328,231,31614513,-658635822,829445681,173610899,28336
1418450564120,249,-172,-1237,350,-307,246,32795367,-657921621,830015761,173375161,28341
1418450564120,260,-175,-1229,321,-291,262,33881911,-657180424,830600153,173178511,28346
1418450564137,264,-172,-1199,289,-274,275,34869395,-656419955,831192373,173025178,28351
1418450564137,274,-173,-1208,252,-256,286,35747834,-655645752,831786904,172924239,28356
1418450564139,269,-181,-1196,217,-234,296,36512367,-654861941,832383547,172863591,28362
1418450564139,285,-194,-1180,180,-216,306,37166658,-654066778,832981322,172855176,28367
1418450564142,282,-203,-1168,139,-198,315,37705936,-653262911,833576315,172909987,28372
1418450564142,285,-206,-1142,93,-179,327,38116464,-652444829,834172015,173035936,28377
1418450564144,289,-211,-1152,54,-158,338,38407678,-651615113,834769946,173214428,28382
1418450564144,285,-212,-1152,18,-136,352,38580892,-650767395,835376956,173436325,28387
1418450564152,302,-228,-1153,-7,-117,367,38657124,-649897531,835999234,173682504,28392
1418450564152,314,-246,-1162,-27,-102,384,38657864,-648997823,836641993,173951361,28397
1418450564184,319,-271,-1168,-40,-84,400,38588323,-648071095,837307078,174221582,28402
1418450564184,338,-287,-1174,-50,-66,416,38452516,-647116813,837995880,174486802,28408
1418450564187,355,-302,-1167,-53,-44,434,38254672,-646131782,838715100,174724895,28413
1418450564187,378,-322,-1171,-50,-20,448,38002483,-645125145,839460677,174918934,28418
1418450564189,397,-346,-1191,-42,5,460,37701574,-644101338,840230960,175058553,28423
1418450564189,416,-357,-1199,-27,30,474,37363859,-643055002,841033145,175125558,28428
1418450564192,419,-366,-1200,-10,63,490,36974911,-641985328,841872169,175101259,28433
1418450564192,429,-383,-1210,7,97,512,36532207,-640878632,842758816,174983027,28438
1418450564224,443,-403,-1227,28,133,534,36034027,-639735739,843694385,174759904,28443
1418450564224,447,-426,-1248,46,166,555,35482447,-638557572,844675108,174443948,28449
1418450564227,450,-442,-1259,62,197,575,34877706,-637345371,845698034,174042415,28454
1418450564227,446,-453,-1276,77,225,596,34224811,-636095465,846763728,173562424,28459
1418450564229,453,-459,-1282,91,254,616,33519837,-634810530,847869913,173003260,28464
1418450564229,435,-465,-1283,106,281,638,32769503,-633484862,849019572,172366939,28469
1418450564232,444,-480,-1289,125,306,657,31983980,-632123621,850209333,171645994,28474
1418450564232,446,-483,-1290,150,335,671,31168419,-630739101,851432918,170822148,28479
1418450564263,452,-491,-1291,176,360,679,30336393,-629342980,852680078,169897931,28484
1418450564263,452,-497,-1314,201,391,682,29474729,-627949136,853942003,168865879,28489
1418450564266,433,-497,-1321,226,423,680,28582636,-626569309,855210265,167722520,28495
1418450564266,425,-475,-1354,250,458,674,27651891,-625213846,856477897,166463620,28500
1418450564268,414,-480,-1372,273,491,664,26689467,-623891426,857737264,165092254,28505
1418450564268,400,-471,-1406,293,515,651,25709880,-622604444,858981051,163633030,28510
1418450564271,414,-338,-1396,285,537,645,24668670,-621338176,860208487,162151753,28515
1418450564271,401,-383,-1606,248,601,708,23403779,-619956400,861523123,160641648,28520
1418450564303,397,-493,-1544,220,581,735,22121725,-618501643,862864423,159225751,28525
1418450564303,362,-666,-1460,280,528,710,21063355,-617072251,864180744,157769828,28530
1418450564305,348,-768,-1439,327,552,629,20045903,-615829681,865379522,156178596,28535
1418450564306,363,-758,-1508,362,602,514,19010183,-614865897,866401797,154427887,28541
1418450564308,375,-639,-1559,370,629,385,17980560,-614207960,867212979,152605489,28546
1418450564308,410,-477,-1575,376,645,298,16968982,-613756674,867881233,150726468,28551
1418450564310,455,-349,-1629,373,683,306,15876783,-613302385,868558850,148778833,28556
1418450564311,467,-299,-1696,356,711,410,14664637,-612618589,869395993,146818004,28561
1418450564343,424,-371,-1756,332,716,543,13354740,-611627054,870435814,144903409,28566
1418450564343,368,-462,-1718,304,696,628,12003722,-610426449,871597304,143091247,28571
1418450564345,323,-565,-1718,290,677,648,10655045,-609166669,872779668,141349196,28576
1418450564346,303,-623,-1675,294,666,599,9345648,-608010780,873878140,139621103,28581
1418450564348,307,-639,-1674,313,687,527,8039468,-607025067,874861982,137818544,28587
1418450564348,315,-617,-1676,336,719,462,6719594,-606198327,875744325,135911067,28592
1418450564350,320,-573,-1701,360,742,411,5406178,-605495310,876547996,133907880,28597
1418450564351,328,-537,-1735,392,753,387,4131344,-604848948,877319242,131807189,28602
1418450564383,355,-489,-1776,421,749,383,2917809,-604207185,878088737,129641192,28607
1418450564383,357,-472,-1789,438,746,395,1741095,-603533346,878877664,127436358,28612
1418450564385,371,-454,-1822,433,746,414,551819,-602811499,879689748,125241537,28617
1418450564385,382,-435,-1842,405,751,425,-694561,-602062132,880504368,123102683,28622
1418450564388,368,-426,-1858,362,755,430,-2017863,-601298841,881307216,121056712,28627
1418450564388,363,-435,-1872,319,758,435,-3418820,-600520941,882098908,119104721,28633
1418450564390,359,-456,-1876,282,757,439,-4878298,-599729292,882879892,117241550,28638
1418450564391,343,-513,-1901,248,755,440,-6388813,-598930478,883646525,115463370,28643
1418450564423,337,-541,-1896,221,747,419,-7921882,-598174110,884366324,113765942,28648
1418450564423,334,-523,-1890,191,744,389,-9488355,-597483378,885024337,112147275,28653
1418450564425,342,-474,-1891,165,750,382,-11106532,-596807473,885658687,110578842,28658
1418450564425,334,-432,-1906,145,753,413,-12767686,-596056323,886331743,109047658,28663
1418450564428,330,-395,-1901,136,748,477,-14446946,-595149602,887099330,107538466,28668
1418450564428,319,-378,-1903,123,734,563,-16135361,-594032137,887994963,106075076,28673
1418450564430,312,-379,-1864,113,712,649,-17810899,-592701043,889019240,104663945,28679
1418450564431,300,-371,-1835,93,698,725,-19506039,-591181025,890152328,103319153,28684
1418450564463,293,-379,-1836,71,703,792,-21265950,-589497974,891377886,102014064,28689
1418450564463,273,-409,-1824,43,708,842,-23095507,-587691099,892666638,100764823,28694
1418450564465,247,-490,-1866,19,712,869,-24982446,-585814156,893983051,99566371,28699
1418450564465,211,-566,-1921,-22,699,852,-26908598,-583965807,895254438,98492936,28704
1418450564468,160,-655,-1946,-71,672,784,-28836060,-582263525,896401674,97586951,28709
1418450564468,111,-743,-1966,-119,636,667,-30731504,-580822538,897351319,96865208,28714
1418450564470,71,-821,-1930,-146,588,503,-32521379,-579754888,898039144,96300739,28719
1418450564470,58,-853,-1887,-138,543,312,-34150876,-579130222,898434201,95809150,28725
1418450564503,88,-795,-1847,-112,518,147,-35641289,-578894622,898580991,95312241,28730
1418450564503,153,-659,-1895,-79,515,48,-37041131,-578897978,898581953,94747374,28735
1418450564505,260,-448,-1951,-106,517,40,-38468523,-578919058,898562348,94234326,28740
1418450564505,333,-347,-1926,-113,502,137,-39868886,-578705197,898691210,93735694,28745
1418450564508,312,-377,-1808,-91,504,305,-41267301,-578092301,899082465,93158624,28750
1418450564508,284,-464,-2008,-69,552,461,-42789969,-577117961,899710987,92442001,28755
1418450564510,214,-536,-2011,-127,543,545,-44406708,-575930675,900451588,91871347,28760
1418450564510,111,-681,-1901,-139,483,539,-45907482,-574738311,901183329,91424773,28765
1418450564543,66,-752,-1907,-101,455,424,-47275340,-573815861,901747886,90954139,28771
1418450564543,73,-739,-1938,-107,457,288,-48632706,-573217544,902100239,90516139,28776
1418450564545,79,-680,-1935,-109,433,180,-49906771,-572871906,902288648,90132096,28781
1418450564545,116,-599,-1941,-90,406,110,-51065057,-572690271,902377487,89747369,28786
1418450564548,247,-360,-2182,-138,385,101,-52234129,-572519016,902443278,89505347,28791
1418450564548,251,-266,-1777,-264,357,218,-53523216,-572044815,902661835,89571822,28796
1418450564550,242,-416,-1940,-150,409,428,-54811382,-571093465,903218260,89253833,28801
1418450564550,215,-464,-2136,-233,452,541,-56363932,-569865769,903916513,89064892,28807
1418450564583,169,-544,-2041,-394,406,583,-58062440,-568499253,904643433,89325908,28811
1418450564583,106,-682,-2003,-401,322,546,-59570421,-567197401,905321001,89743317,28817
1418450564585,114,-734,-1901,-422,279,429,-60993444,-566160566,905819239,90305173,28822
1418450564585,135,-733,-1878,-413,298,332,-62428408,-565361883,906166794,90839872,28827
1418450564588,129,-740,-1874,-380,324,287,-63862763,-564682506,906447739,91264549,28832
1418450564588,135,-736,-1887,-318,343,263,-65244225,-564075016,906702301,91515083,28837
1418450564590,133,-732,-1926,-243,340,245,-66499543,-563522505,906946902,91591580,28842
1418450564590,127,-713,-1928,-183,319,225,-67607886,-563023168,907178573,91556691,28847
1418450564623,110,-676,-1922,-147,303,204,-68617253,-562576643,907389521,91460128,28852
1418450564623,107,-640,-1902,-127,297,183,-69576014,-562182600,907574501,91323242,28858
1418450564625,93,-598,-1902,-125,294,165,-70517984,-561831420,907733063,91185859,28863
1418450564625,58,-583,-1784,-139,289,147,-71462750,-561519576,907861957,91087947,28868
1418450564628,77,-572,-1821,-204,273,122,-72464106,-561250986,907939978,91174477,28873
1418450564628,60,-596,-2066,-216,277,74,-73477617,-561097031,907941817,91292525,28878
1418450564630,34,-738,-2037,-150,209,28,-74215583,-561050420,907904039,91357732,28883
1418450564630,16,-887,-2055,-44,146,10,-74650224,-561051700,907875660,91277746,28888
1418450564663,0,-936,-1981,43,89,23,-74827038,-561023929,907897841,91082832,28893
1418450564663,13,-869,-1946,94,54,30,-74850655,-560980325,907949054,90821122,28898
1418450564665,95,-514,-2775,157,61,-13,-74781677,-561055365,907950396,90400007,28904
1418450564665,259,-101,-4358,-515,-4,-19,-75515478,-560999296,907798723,91652531,28909
1418450564668,34,403,-2805,-1871,-287,26,-77530082,-560492149,907436531,96530231,28914
1418450564668,12,423,-2202,-1871,-422,-60,-79211816,-560142273,906955077,101587965,28919
1418450564670,90,46,-2688,-1941,-87,47,-81844973,-559594783,906519428,106297272,28924
1418450564670,41,-326,-2974,-2051,-11,149,-84857214,-558783117,906159444,111163158,28929
1418450564703,-44,-624,-2584,-2333,-98,137,-88093588,-557889901,905683755,116862387,28934
1418450564703,-66,-785,-2215,-2342,-198,53,-91105404,-557140593,905064197,122778127,28939
1418450564729,-26,-918,-2018,-2048,-306,-61,-93398165,-556680413,904363011,128190291,28944
1418450564729,-4,-1067,-1911,-1667,-392,-140,-94896441,-556460645,903669906,132847369,28950
1418450564731,81,-1110,-1824,-1345,-416,-196,-95846575,-556437394,902994888,136793996,28955
1418450564731,153,-1050,-1839,-1082,-401,-215,-96430110,-556526297,902370947,140099580,28960
1418450564734,174,-923,-1789,-941,-370,-212,-96867675,-556652566,901788665,143014978,28965
1418450564734,194,-781,-1735,-813,-334,-198,-97197600,-556789493,901262241,145553996,28970
1418450564736,183,-705,-1772,-674,-286,-170,-97437333,-556912549,900816306,147668093,28975
1418450564736,173,-664,-1769,-569,-249,-133,-97619943,-556987407,900455498,149454933,28980
1418450564739,167,-635,-1698,-517,-208,-84,-97841541,-556973421,900175952,151037754,28985
1418450564739,142,-661,-1710,-415,-177,-27,-98009239,-556860773,900012445,152313404,28990
1418450564741,122,-660,-1780,-343,-142,30,-98180889,-556643186,899952394,153349502,28996
1418450564741,82,-644,-1724,-316,-123,68,-98373872,-556348773,899954611,154278414,29001
1418450564772,49,-654,-1717,-254,-101,89,-98540602,-556028175,900007427,155017918,29006
1418450564773,29,-665,-1787,-189,-78,85,-98668608,-555742754,900074889,155567340,29011
1418450564775,8,-631,-1810,-182,-70,63,-98797405,-555514845,900110790,156091001,29016
1418450564775,4,-574,-1765,-219,-78,41,-98952134,-555326490,900101554,156715222,29021
1418450564777,-2,-519,-1745,-266,-95,27,-99127631,-555152314,900056847,157476343,29026
1418450564778,-1,-506,-1756,-321,-113,17,-99334707,-554980067,899979379,158393066,29031
1418450564780,10,-530,-1759,-378,-129,12,-99584249,-554797671,899874206,159469249,29036
1418450564780,16,-577,-1757,-434,-146,5,-99872810,-554609261,899737821,160708897,29042
1418450564812,37,-595,-1758,-507,-152,-2,-100253763,-554414329,899559097,162138428,29047
1418450564812,24,-631,-1668,-620,-128,-8,-100854929,-554212885,899313720,163806901,29052
1418450564815,38,-643,-1678,-695,-89,-26,-101657300,-554048729,898994786,165607003,29057
1418450564815,11,-685,-1712,-751,-78,-51,-102555932,-553932276,898607722,167532035,29062
1418450564817,23,-699,-1759,-805,-72,-75,-103541590,-553858006,898155544,169583529,29067
1418450564817,23,-683,-1866,-851,-85,-92,-104553902,-553803457,897656746,171767530,29072
1418450564820,14,-626,-1809,-982,-82,-100,-105758419,-553730315,897081182,174254849,29077
1418450564820,-23,-619,-1727,-1041,-76,-99,-107062313,-553637234,896472414,176867717,29082
1418450564852,-24,-670,-1817,-1010,-69,-94,-108343573,-553539268,895877099,179392525,29088
1418450564852,14,-679,-1898,-974,-105,-70,-109496995,-553373242,895338438,181876468,29093
1418450564855,34,-707,-1755,-980,-145,-7,-110587764,-553033266,894895482,184412946,29098
1418450564855,48,-699,-1848,-903,-175,78,-111537230,-552494553,894616840,186792481,29103
1418450564857,63,-737,-1767,-876,-195,161,-112435288,-551753880,894475353,189106611,29108
1418450564857,86,-751,-1789,-802,-232,224,-113169806,-550863123,894468364,191285821,29113
1418450564860,121,-721,-1732,-774,-245,285,-113860261,-549826530,894564133,193398931,29118
1418450564860,143,-704,-1680,-725,-238,385,-114542240,-548568261,894824567,195354646,29123
1418450564892,172,-753,-1746,-616,-236,514,-115133948,-547034643,895324743,197008586,29128
1418450564892,168,-860,-1761,-542,-248,622,-115643097,-545257637,896019533,198472376,29134
1418450564895,144,-975,-1697,-505,-241,650,-116135221,-543424799,896765814,199836627,29139
1418450564895,112,-1095,-1699,-480,-205,547,-116632101,-541860032,897358486,201131580,29144
1418450564897,84,-1175,-1640,-508,-114,308,-117268183,-540902484,897558058,202444348,29149
1418450564897,86,-1142,-1647,-514,-5,0,-118015722,-540734875,897272855,203717973,29154
1418450564900,140,-1083,-1710,-528,95,-248,-118886405,-541208800,896589745,204957049,29159
1418450564900,173,-966,-1741,-496,129,-361,-119719232,-541982263,895749233,206100339,29164
1418450564932,161,-842,-1737,-445,123,-330,-120469696,-542695946,894983451,207109371,29169
1418450564932,140,-783,-1708,-377,101,-195,-121137761,-543097988,894458543,207931811,29175
1418450564935,105,-790,-1736,-279,53,-39,-121635377,-543133139,894229487,208533832,29180
1418450564935,76,-844,-1728,-221,11,73,-122014288,-542896092,894208537,209019004,29185
1418450564937,52,-885,-1702,-207,-4,118,-122366876,-542546783,894264769,209478788,29190
1418450564937,44,-919,-1678,-210,4,94,-122736171,-542256341,894280388,209947581,29195
1418450564940,46,-916,-1680,-226,22,44,-123146643,-542088851,894207806,210448302,29200
1418450564940,59,-905,-1671,-244,34,-6,-123582985,-542041178,894048745,210990411,29205
1418450564973,61,-879,-1669,-259,41,-35,-124039387,-542061744,893836661,211567540,29210
1418450564973,78,-873,-1669,-266,45,-42,-124509605,-542099069,893609303,212155312,29215
1418450564976,73,-856,-1673,-273,45,-32,-124993228,-542110522,893391869,212756551,29221
1418450564976,68,-859,-1687,-279,48,-16,-125500902,-542083496,893193173,213359949,29226
1418450564978,74,-877,-1733,-268,54,3,-126017784,-542018052,893025879,213921093,29231
1418450564978,60,-896,-1736,-258,53,27,-126530364,-541898307,892898880,214451361,29236
1418450564981,58,-928,-1709,-240,44,58,-127015407,-541704998,892829394,214941758,29241
1418450564981,38,-961,-1713,-214,33,73,-127447839,-541477691,892798861,215384905,29246
1418450565012,30,-983,-1696,-201,24,68,-127840803,-541260472,892770981,215813142,29251
1418450565012,36,-1005,-1676,-187,21,46,-128196107,-541097874,892719672,216221973,29256
1418450565014,48,-1006,-1666,-166,20,20,-128504768,-541003307,892642348,216594297,29261
1418450565014,52,-1005,-1677,-151,22,0,-128783967,-540962719,892543720,216936028,29267
1418450565017,57,-997,-1662,-138,20,-8,-129034141,-540944584,892441736,217251928,29272
1418450565017,54,-962,-1667,-126,13,-11,-129247991,-540933739,892344618,217550537,29277
1418450565021,60,-950,-1672,-120,5,-5,-129435775,-540906467,892263174,217840554,29282
1418450565021,65,-933,-1637,-119,-3,2,-129604207,-540858923,892195897,218133814,29287
1418450565053,55,-944,-1631,-103,0,10,-129762251,-540799376,892147665,218384622,29292
1418450565053,62,-956,-1669,-90,14,6,-129934241,-540761506,892096194,218586304,29297
1418450565055,55,-950,-1692,-93,19,-5,-130114812,-540751904,892025431,218791338,29302
1418450565056,55,-908,-1688,-105,17,-17,-130300570,-540765534,891931546,219029725,29307
1418450565058,47,-892,-1675,-110,14,-15,-130485264,-540771452,891839499,219279838,29313
1418450565058,43,-880,-1673,-110,16,-4,-130681350,-540752312,891762871,219521774,29318
1418450565061,34,-900,-1678,-103,12,8,-130864580,-540704799,891709265,219747293,29323
1418450565061,40,-922,-1727,-91,18,12,-131048924,-540654998,891666063,219935191,29328
1418450565092,23,-921,-1719,-90,14,13,-131222029,-540601012,891626238,220126061,29333
1418450565092,38,-915,-1703,-85,9,14,-131378486,-540542985,891592690,220311040,29338
1418450565094,34,-932,-1698,-72,3,19,-131503417,-540474455,891575757,220473103,29343
1418450565094,32,-944,-1695,-52,0,25,-131597392,-540396549,891579865,220591356,29348
1418450565097,32,-943,-1687,-41,-1,28,-131674391,-540314901,891595410,220682563,29353
1418450565097,29,-949,-1671,-31,-7,24,-131720535,-540242690,891613103,220760315,29359
1418450565101,31,-944,-1676,-23,-2,13,-131761646,-540202074,891617642,220816832,29364
1418450565101,47,-943,-1674,-18,0,4,-131795810,-540185568,891611026,220863535,29369
1418450565133,36,-932,-1666,-17,1,-5,-131823953,-540191778,891591452,220910565,29374
1418450565133,43,-918,-1674,-16,2,-10,-131850833,-540210617,891565246,220954211,29379
1418450565135,44,-910,-1668,-19,2,-11,-131879706,-540231207,891536138,221004086,29384
1418450565136,48,-907,-1660,-22,0,-9,-131908940,-540244910,891508938,221062857,29389
1418450565138,46,-906,-1656,-27,1,-9,-131947382,-540257531,891478356,221132392,29394
1418450565138,46,-900,-1671,-33,2,-11,-131995904,-540273315,891441017,221215379,29399
1418450565140,45,-899,-1671,-41,0,-10,-132050996,-540282924,891401419,221318575,29405
1418450565141,53,-890,-1681,-54,-1,-9,-132121592,-540285335,891356572,221451142,29410
1418450565173,61,-881,-1677,-63,-2,-6,-132202893,-540277263,891311273,221604587,29415
1418450565173,51,-876,-1669,-74,-2,-2,-132301137,-540256114,891265254,221782532,29420
1418450565175,61,-888,-1677,-83,0,3,-132422404,-540220502,891219971,221978793,29425
1418450565176,59,-895,-1684,-93,1,4,-132560365,-540179711,891169503,222198228,29430
1418450565178,55,-903,-1679,-101,2,6,-132713713,-540131825,891116743,222434566,29435
1418450565178,54,-911,-1672,-106,1,9,-132874575,-540074190,891065469,222683748,29440
1418450565180,62,-922,-1689,-104,1,13,-133035597,-540007559,891020840,222927643,29445
1418450565181,45,-928,-1684,-105,-4,19,-133187523,-539923877,890986395,223177151,29451
1418450565212,51,-938,-1669,-103,-6,21,-133335161,-539834392,890956749,223423682,29456
1418450565213,59,-945,-1667,-99,-8,21,-133472589,-539745020,890929648,223665483,29461
1418450565215,60,-963,-1667,-91,-8,20,-133597466,-539660941,890905530,223889769,29466
1418450565216,60,-970,-1659,-78,-9,23,-133703896,-539573534,890893379,224085166,29473
1418450565218,50,-982,-1665,-66,-6,23,-133800759,-539492027,890887047,224248713,29477
1418450565218,59,-989,-1668,-52,-2,22,-133887863,-539419888,890886161,224373749,29481
1418450565221,47,-981,-1664,-39,-3,20,-133952049,-539356689,890890257,224471082,29486
1418450565221,53,-977,-1666,-30,-3,18,-134002988,-539301223,890897180,224546454,29491
1418450565253,52,-970,-1657,-19,-4,16,-134033636,-539254058,890908187,224597758,29497
1418450565253,60,-977,-1656,-8,-5,15,-134045477,-539212602,890924761,224624477,29502
1418450565255,54,-977,-1636,2,-1,15,-134048222,-539176970,890946547,224621959,29507
1418450565255,48,-978,-1641,13,1,14,-134041949,-539148176,890972013,224593806,29512
1418450565258,56,-977,-1653,20,4,9,-134030280,-539135407,890993543,224546007,29517
1418450565258,54,-957,-1645,23,8,5,-134020177,-539135898,891009731,224486617,29522
1418450565261,49,-961,-1657,25,11,0,-134010675,-539150925,891019242,224418437,29527
1418450565261,43,-942,-1662,25,13,-2,-134005114,-539171793,891025291,224347594,29532
1418450565293,51,-926,-1665,21,13,-3,-134004131,-539193750,891028090,224284289,29538
1418450565293,40,-920,-1662,15,11,-2,-134005827,-539210446,891029717,224236664,29543
1418450565295,38,-916,-1666,10,9,2,-134013236,-539214449,891035083,224201286,29548
1418450565296,36,-923,-1684,4,8,2,-134026756,-539215747,891037390,224180914,29553
1418450565298,32,-910,-1692,-4,3,-2,-134041381,-539220922,891030096,224188711,29558
1418450565298,36,-906,-1679,-13,0,-1,-134061866,-539218858,891020392,224219996,29563
1418450565301,45,-912,-1660,-12,-2,5,-134078054,-539202140,891021084,224247769,29568
1418450565301,40,-915,-1678,-7,-2,11,-134090594,-539172980,891032869,224263553,29573
1418450565333,38,-925,-1666,-9,-1,15,-134110914,-539134175,891049077,224280296,29578
1418450565334,41,-924,-1674,-10,-2,14,-134130792,-539096512,891063267,224302566,29584
1418450565357,41,-924,-1670,-14,-2,10,-134153415,-539067064,891069397,224335455,29589
1418450565358,43,-924,-1664,-17,-5,7,-134171536,-539041844,891070452,224381024,29594
1418450565366,45,-921,-1668,-20,-7,5,-134187982,-539019112,891067455,224437695,29599
1418450565367,50,-915,-1666,-21,-7,3,-134204170,-539000891,891061077,224497086,29604
1418450565369,46,-920,-1674,-25,-8,3,-134222932,-538980841,891052701,224567244,29609
1418450565369,49,-922,-1662,-31,-8,2,-134250150,-538960905,891039349,224651780,29614
1418450565371,59,-906,-1662,-36,-7,-1,-134285261,-538946859,891018105,224748734,29619
1418450565372,65,-906,-1669,-44,-4,2,-134338843,-538925109,890995511,224858417,29624
1418450565389,56,-909,-1649,-51,-4,5,-134403419,-538893940,890973018,224983616,29630
1418450565389,46,-925,-1660,-54,-3,6,-134476916,-538859500,890949629,225114772,29635
1418450565391,54,-930,-1654,-58,4,6,-134575747,-538827064,890920658,225247974,29640
1418450565391,47,-935,-1671,-62,4,7,-134680497,-538790912,890890397,225391487,29645
1418450565393,48,-943,-1678,-62,5,8,-134788667,-538752861,890861407,225532322,29650
1418450565394,42,-936,-1684,-59,5,7,-134892010,-538718225,890832663,225666774,29655
1418450565400,44,-943,-1684,-57,4,8,-134990720,-538681319,890807233,225796191,29660
1418450565400,52,-951,-1668,-54,-1,10,-135073161,-538638055,890788678,225923268,29665
1418450565402,43,-959,-1668,-49,-7,12,-135135441,-538588211,890777646,226048316,29670
1418450565402,48,-959,-1665,-44,-6,10,-135193051,-538545168,890766354,226160895,29676
1418450565410,56,-960,-1682,-37,-7,8,-135236586,-538508895,890756652,226259428,29681
1418450565410,50,-967,-1655,-29,-9,10,-135263818,-538469876,890755422,226340840,29686
1418450565435,55,-970,-1655,-17,-8,14,-135280402,-538425839,890766405,226392461,29691
1418450565435,55,-966,-1668,-10,-8,14,-135286586,-538384414,890781462,226428036,29696
1418450565437,55,-970,-1655,-4,-7,10,-135283519,-538355397,890794295,226448371,29701
1418450565437,54,-970,-1650,-1,-5,6,-135279082,-538338002,890802231,226461157,29706
1418450565440,49,-965,-1658,3,-2,5,-135271869,-538325925,890810982,226459753,29711
1418450565440,55,-962,-1654,8,2,2,-135266608,-538324817,890816696,226443051,29716
1418450565451,50,-953,-1661,10,2,0,-135256613,-538329342,890820670,226422631,29722
1418450565451,53,-950,-1651,13,4,0,-135246882,-538336200,890826102,226390765,29727
1418450565483,48,-930,-1660,12,5,-4,-135238370,-538352833,890824729,226361699,29732
1418450565483,45,-918,-1661,9,7,-2,-135239270,-538365061,890824339,226333613,29737
1418450565486,47,-920,-1672,2,8,0,-135253408,-538370723,890822567,226318670,29742
1418450565486,43,-926,-1667,-3,6,0,-135273351,-538373728,890817596,226319166,29747
1418450565488,37,-931,-1656,-8,5,3,-135300779,-538366989,890814138,226332416,29752
1418450565488,44,-934,-1677,-11,8,6,-135342635,-538353553,890811935,226348014,29757
1418450565491,37,-937,-1671,-14,7,5,-135384625,-538341108,890806933,226372190,29762
1418450565491,43,-942,-1668,-18,7,4,-135432788,-538329328,890798053,226406335,29768
1418450565523,45,-939,-1675,-18,6,3,-135477698,-538319386,890787854,226443231,29773
1418450565523,38,-941,-1690,-17,5,3,-135518208,-538309352,890778744,226478680,29778
1418450565525,39,-935,-1685,-17,3,4,-135554947,-538295644,890772042,226515628,29783
1418450565526,42,-944,-1671,-16,0,5,-135583437,-538278192,890768522,226553892,29788
1418450565528,42,-953,-1663,-12,-2,8,-135602406,-538254071,890772615,226583750,29793
1418450565528,43,-962,-1656,-8,-2,10,-135617565,-538226467,890781685,226604591,29798
1418450565530,42,-961,-1658,-2,-3,9,-135621733,-538202648,890792996,226614206,29803
1418450565531,52,-969,-1686,4,2,6,-135624966,-538190532,890802247,226604683,29808
1418450565562,44,-958,-1662,10,2,5,-135617577,-538183314,890813691,226581261,29814
1418450565563,45,-959,-1666,14,3,4,-135607154,-538180280,890825830,226546974,29819
1418450565565,48,-954,-1660,21,1,4,-135581792,-538178608,890842920,226498919,29824
1418450565565,51,-957,-1666,27,1,3,-135546831,-538181573,890862179,226437041,29829
1418450565567,41,-953,-1666,30,1,2,-135506660,-538188068,890881761,226368596,29834
1418450565567,46,-941,-1656,34,2,-2,-135461544,-538205885,890897897,226289718,29839
1418450565570,46,-938,-1658,34,2,-4,-135414365,-538228661,890911223,226211310,29844
1418450565570,45,-932,-1674,34,0,-6,-135361033,-538255023,890922480,226136153,29849
1418450565603,44,-928,-1657,29,-2,-7,-135307417,-538281278,890930954,226072355,29855
1418450565603,51,-919,-1670,26,-2,-7,-135258508,-538306344,890937506,226016111,29860
1418450565605,54,-906,-1652,20,-3,-6,-135214858,-538326670,890942486,225974183,29865
1418450565605,53,-911,-1666,11,-2,-6,-135186010,-538344474,890941710,225952085,29870
1418450565608,47,-912,-1666,1,-1,-6,-135173851,-538359284,890934629,225951994,29875
1418450565608,57,-912,-1668,-9,-2,-4,-135179346,-538365217,890923868,225977000,29880
1418450565610,60,-907,-1665,-16,2,-2,-135205915,-538366207,890909588,226015042,29885
1418450565610,59,-917,-1663,-22,2,2,-135242989,-538355673,890897462,226065744,29890
1418450565642,55,-916,-1660,-26,3,6,-135291272,-538334631,890888067,226123979,29895
1418450565642,53,-920,-1674,-34,4,8,-135355022,-538306454,890876410,226198822,29901
1418450565644,50,-928,-1677,-38,4,7,-135423887,-538279208,890861022,226283031,29906
1418450565645,46,-941,-1664,-41,5,7,-135500052,-538251318,890843365,226373274,29911
1418450565647,63,-961,-1690,-37,7,5,-135575491,-538230442,890824134,226453405,29916
1418450565647,52,-962,-1673,-35,7,7,-135647814,-538205906,890808571,226529619,29921
1418450565649,51,-970,-1664,-28,4,10,-135706449,-538174549,890802555,226592649,29926
1418450565649,42,-982,-1668,-14,3,13,-135745234,-538140330,890809370,226623889,29931
1418450565681,41,-986,-1675,-3,3,14,-135770302,-538107348,890824177,226628989,29936
1418450565682,40,-985,-1663,7,2,9,-135771943,-538088973,890839190,226612621,29941
1418450565684,37,-991,-1652,16,2,4,-135758070,-538085611,890852356,226577154,29947
1418450565684,46,-982,-1662,24,3,-2,-135732451,-538099733,890861156,226524356,29952
1418450565686,41,-976,-1649,30,3,-7,-135693517,-538128315,890866590,226458407,29957
1418450565686,45,-958,-1660,36,4,-9,-135647738,-538164261,890872455,226377325,29962
1418450565689,52,-945,-1662,38,5,-10,-135599163,-538204331,890878200,226288538,29967
1418450565689,45,-932,-1654,39,4,-7,-135547123,-538237408,890889402,226196924,29972
1418450565721,51,-925,-1654,40,5,-4,-135498097,-538264257,890905435,226099240,29977
1418450565721,43,-925,-1666,35,10,-2,-135468327,-538287808,890919566,226005311,29982
1418450565724,41,-927,-1666,31,8,-4,-135438826,-538313331,890929402,225923414,29987
1418450565724,41,-921,-1656,28,8,-3,-135414557,-538335311,890938838,225848364,29993
1418450565727,43,-921,-1673,23,5,-4,-135389713,-538356058,890944916,225789818,29998
1418450565727,49,-917,-1658,18,3,-5,-135365997,-538376346,890947446,225745679,30003
1418450565729,48,-917,-1679,12,1,-4,-135346356,-538390991,890948327,225719047,30008
1418450565730,52,-910,-1665,6,0,-2,-135333642,-538398255,890949102,225706286,30013
1418450565762,46,-913,-1666,0,0,-1,-135333561,-538401319,890946665,225708646,30018
1418450565762,43,-920,-1667,-5,1,2,-135345578,-538395874,890945202,225720202,30023
1418450565764,43,-930,-1663,-10,1,4,-135366624,-538383714,890943502,225743294,30028
1418450565764,41,-941,-1663,-9,1,3,-135386290,-538374120,890940693,225765466,30033
1418450565767,42,-949,-1662,-10,0,4,-135406418,-538360989,890938859,225791945,30039
1418450565767,37,-954,-1663,-9,-1,2,-135420457,-538352633,890935511,225816658,30044
1418450565769,35,-953,-1671,-7,0,1,-135435586,-538347421,890930950,225838006,30049
1418450565769,42,-959,-1667,-5,0,-2,-135445952,-538350072,890923445,225855073,30054
1418450565785,49,-948,-1655,-3,-3,-2,-135444621,-538352070,890918532,225870491,30059
1418450565785,38,-964,-1667,4,-1,1,-135435028,-538350682,890922365,225864432,30064
1418450565788,38,-960,-1659,7,-1,1,-135422793,-538349956,890927958,225851434,30069
1418450565788,37,-953,-1676,12,1,0,-135408988,-538354243,890933793,225826475,30074
1418450565820,46,-948,-1667,14,1,-3,-135389737,-538366565,890936913,225796334,30079
1418450565821,46,-949,-1679,15,2,-6,-135368695,-538387200,890935827,225764028,30085
1418450565825,51,-945,-1672,18,1,-7,-135340090,-538410759,890935594,225725915,30090
1418450565825,48,-938,-1664,18,-2,-3,-135304824,-538423511,890942697,225688595,30095
1418450565828,42,-938,-1658,21,0,1,-135274016,-538428650,890956121,225641810,30100
1418450565828,43,-935,-1655,18,-1,0,-135243909,-538434635,890967281,225601505,30105
1418450565845,48,-941,-1666,18,-1,-2,-135212434,-538445406,890975583,225561875,30110
1418450565846,47,-931,-1663,16,-2,-4,-135179757,-538459725,890980089,225529478,30115
1418450565848,49,-934,-1674,14,1,-5,-135157558,-538477223,890980482,225499449,30120
1418450565848,60,-932,-1666,9,-2,-5,-135133624,-538491568,890979584,225483083,30125
1418450565850,50,-926,-1659,9,-1,-1,-135113469,-538497272,890983834,225464746,30131
1418450565851,54,-926,-1661,8,1,-3,-135100641,-538507972,890983501,225448191,30136
1418450565883,49,-926,-1666,2,2,-3,-135098328,-538517231,890979165,225444597,30141
1418450565883,55,-928,-1670,0,3,-3,-135101626,-538526278,890973409,225443760,30146
1418450565886,53,-921,-1676,-4,2,-3,-135111468,-538533683,890964560,225455145,30151
1418450565886,57,-925,-1678,-7,1,-2,-135123482,-538537127,890955970,225473665,30156
1418450565888,53,-932,-1679,-10,1,0,-135140744,-538534810,890948318,225499086,30161
1418450565888,54,-930,-1664,-13,4,1,-135170787,-538530649,890939137,225527288,30166
1418450565891,55,-930,-1677,-12,6,-1,-135203154,-538532740,890926815,225551572,30171
1418450565891,54,-947,-1672,-11,8,0,-135238935,-538534146,890915953,225569667,30177
1418450565921,48,-957,-1676,-10,7,4,-135274479,-538525524,890911355,225587096,30182
1418450565921,47,-954,-1668,-6,7,5,-135305918,-538515709,890910512,225595004,30187
1418450565932,37,-957,-1675,-3,5,5,-135328469,-538505733,890912176,225598715,30192
1418450565932,46,-951,-1678,-1,3,2,-135342581,-538502148,890911637,225600936,30197
1418450565937,37,-953,-1648,0,1,0,-135344157,-538502569,890910544,225603304,30202
1418450565937,41,-959,-1648,3,3,-3,-135346289,-538511904,890905957,225597857,30207
1418450565939,43,-949,-1655,8,2,-6,-135336993,-538529578,890900231,225583856,30212
1418450565939,49,-940,-1669,10,1,-6,-135321502,-538547614,890896348,225565426,30217
1418450565964,54,-937,-1663,9,2,-7,-135307703,-538568645,890890351,225547173,30223
1418450565964,43,-924,-1665,9,4,-9,-135296953,-538595748,890880678,225527113,30228
1418450565966,42,-926,-1663,8,5,-6,-135292181,-538615880,890874839,225504959,30233
1418450565966,47,-923,-1677,5,5,-5,-135292587,-538632489,890868576,225489787,30238
1418450565969,47,-916,-1673,3,5,-5,-135294773,-538648652,890861273,225478719,30243
1418450565969,39,-926,-1670,0,3,-2,-135301862,-538655724,890856339,225477061,30248
1418450565994,39,-928,-1664,-3,1,0,-135311167,-538655401,890853055,225485224,30253
1418450565994,37,-933,-1660,-5,2,2,-135327198,-538650141,890850960,225496448,30258
1418450566004,53,-937,-1678,-6,4,1,-135349397,-538647943,890845978,225508055,30263
1418450566004,38,-938,-1674,-6,2,3,-135366085,-538640296,890844465,225522280,30269
1418450566006,38,-947,-1667,-6,0,3,-135379737,-538631016,890843839,225538721,30274
1418450566006,38,-952,-1663,-1,0,4,-135387511,-538620991,890847360,225544090,30279
1418450566009,47,-948,-1662,0,-1,3,-135386023,-538613121,890851806,225546217,30284
1418450566009,47,-954,-1652,2,-1,0,-135378747,-538613371,890853087,225544927,30289
1418450566036,41,-950,-1656,6,-2,-2,-135362784,-538619048,890854002,225537336,30294
1418450566037,49,-954,-1660,7,1,-6,-135351826,-538635945,890848332,225525956,30299
1418450566062,49,-943,-1665,9,3,-7,-135341427,-538657315,890841539,225507990,30304
1418450566062,50,-943,-1669,10,3,-7,-135328850,-538679234,890835656,225486419,30310
1418450566085,52,-930,-1670,10,5,-5,-135322006,-538697662,890831952,225461131,30315
1418450566086,49,-927,-1669,8,9,-3,-135327779,-538713265,890828750,225433038,30320
1418450566088,44,-927,-1666,8,8,-3,-135331352,-538728224,890826007,225405980,30325
1418450566088,42,-926,-1670,6,7,-1,-135337226,-538736964,890825333,225384229,30330
1418450566090,38,-941,-1672,5,5,0,-135340421,-538741763,890826315,225366958,30335
1418450566090,33,-941,-1662,3,0,1,-135336398,-538740170,890829077,225362263,30340
1418450566093,45,-949,-1661,2,-1,2,-135331413,-538735400,890833589,225358823,30345
1418450566093,45,-946,-1652,2,-3,-1,-135319117,-538736739,890834133,225360856,30350
1418450566095,48,-939,-1674,0,-4,-3,-135306222,-538741475,890830925,225369957,30356
1418450566095,51,-932,-1660,-1,-6,-4,-135291892,-538747600,890825827,225384070,30361
1418450566098,51,-932,-1659,-2,-6,-4,-135278723,-538753433,890820070,225400786,30366
1418450566098,50,-925,-1677,-5,-2,-3,-135279983,-538758205,890812495,225418562,30371
1418450566100,58,-923,-1677,-7,-1,-2,-135286275,-538760690,890805193,225437702,30376
1418450566100,54,-928,-1662,-9,2,-3,-135302453,-538766503,890793495,225460322,30381
1418450566125,46,-927,-1664,-12,4,-1,-135330001,-538767408,890781910,225487396,30386
1418450566125,41,-923,-1667,-14,5,-3,-135362289,-538772761,890766069,225517801,30391
1418450566128,44,-921,-1669,-17,5,-2,-135399676,-538774611,890750070,225554128,30396
1418450566128,44,-915,-1674,-22,4,-2,-135441372,-538774180,890731452,225603641,30402
1418450566130,41,-917,-1677,-26,6,-1,-135493658,-538771259,890711345,225658601,30407
1418450566130,44,-931,-1685,-29,4,2,-135547615,-538758858,890694500,225722286,30412
1418450566133,52,-938,-1679,-30,6,3,-135608551,-538744871,890677499,225786143,30417
1418450566133,52,-943,-1667,-28,7,5,-135669901,-538727533,890663850,225844493,30422
1418450566140,47,-946,-1680,-25,10,6,-135735263,-538710556,890652093,225892075,30427
1418450566140,45,-951,-1679,-23,9,6,-135795650,-538693631,890642073,225935648,30432
1418450566171,42,-960,-1674,-18,7,6,-135844601,-538677187,890635689,225970587,30437
1418450566171,39,-961,-1672,-12,6,5,-135882897,-538664448,890631625,225993949,30442
1418450566174,42,-967,-1669,-6,5,6,-135911221,-538650803,890632969,226004143,30448
1418450566174,41,-963,-1656,-2,3,5,-135928556,-538639750,890635788,226008953,30453
1418450566176,43,-960,-1660,2,3,2,-135934799,-538636955,890637621,226004636,30458
1418450566176,49,-950,-1663,6,2,1,-135931840,-538637502,890640875,225992287,30463
1418450566179,32,-963,-1663,11,4,1,-135925201,-538641381,890646584,225964535,30468
1418450566179,40,-950,-1665,14,3,0,-135913748,-538647492,890652992,225931594,30473
1418450566213,42,-949,-1671,18,1,-1,-135889623,-538656621,890661288,225891633,30478
1418450566213,43,-942,-1664,19,1,-2,-135863035,-538668591,890668810,225849420,30483
1418450566216,38,-932,-1664,18,0,-2,-135835241,-538679663,890676144,225810804,30488
1418450566216,39,-928,-1678,16,-1,-4,-135805288,-538694521,890680671,225775518,30494
1418450566222,52,-924,-1660,14,0,-4,-135781289,-538709076,890683277,225744944,30499
1418450566222,43,-932,-1668,10,-1,-4,-135758208,-538722200,890684099,225724262,30504
1418450566224,40,-931,-1654,7,-1,-2,-135741773,-538729206,890686043,225709754,30509
1418450566224,47,-933,-1660,4,-2,-3,-135727341,-538736727,890685006,225704573,30514
1418450566228,43,-936,-1670,2,0,-2,-135721778,-538742192,890682794,225703602,30519
1418450566228,49,-931,-1664,1,1,-2,-135720306,-538747825,890679738,225703100,30524
1418450566259,43,-943,-1674,2,1,-2,-135716688,-538754000,890677228,225700441,30529
1418450566259,41,-939,-1668,-1,-1,-2,-135715983,-538758240,890673221,225706557,30534
1418450566261,49,-944,-1679,-1,-2,0,-135710465,-538756854,890673457,225712252,30540
1418450566261,51,-943,-1675,1,-1,0,-135703579,-538757012,890674429,225712177,30545
1418450566264,46,-943,-1663,3,1,2,-135701065,-538754026,890678091,225706367,30550
1418450566264,43,-942,-1663,6,0,2,-135692742,-538751302,890683847,225695157,30555
1418450566268,43,-942,-1665,7,-1,2,-135679435,-538748635,890691236,225680365,30560
1418450566268,36,-943,-1666,9,0,0,-135665809,-538751687,890696018,225662398,30565
1418450566301,30,-944,-1659,10,2,-3,-135654442,-538763228,890696471,225639887,30570
1418450566301,47,-945,-1666,11,1,-4,-135639551,-538776677,890696435,225616869,30575
1418450566303,44,-944,-1653,12,1,-6,-135620130,-538795709,890693921,225593015,30580
1418450566303,32,-938,-1663,11,-1,-6,-135596612,-538813375,890692036,225572401,30586
1418450566306,51,-928,-1661,8,-1,-5,-135578622,-538827428,890690232,225556771,30591
1418450566306,49,-931,-1658,5,0,-3,-135567510,-538836508,890688435,225548853,30596
1418450566308,50,-920,-1660,1,-2,-3,-135556422,-538843186,890685483,225551219,30601
1418450566308,43,-919,-1665,-1,-1,-3,-135553625,-538850175,890680268,225556799,30606
1418450566340,54,-932,-1669,-6,-1,-3,-135558523,-538855228,890672245,225573464,30611
1418450566340,41,-929,-1663,-11,-2,-2,-135568287,-538855638,890662594,225604721,30616
1418450566346,46,-934,-1655,-12,1,-4,-135588181,-538861532,890647991,225636338,30621
1418450566347,36,-931,-1672,-17,0,-4,-135612865,-538865021,890630453,225682389,30627
1418450566349,39,-919,-1663,-21,-1,-5,-135639235,-538869108,890610479,225735604,30632
1418450566349,42,-929,-1667,-26,0,-6,-135675275,-538874179,890585218,225801493,30637
1418450566351,54,-932,-1665,-29,3,-5,-135723444,-538877567,890558279,225870694,30642
1418450566352,47,-933,-1674,-33,2,-5,-135773949,-538879165,890529013,225951900,30647
1418450566384,42,-933,-1683,-35,3,-4,-135830786,-538878143,890499818,226035227,30652
1418450566384,50,-930,-1675,-36,4,-4,-135891653,-538877301,890469849,226118697,30657
1418450566386,47,-941,-1679,-36,2,-3,-135947601,-538873074,890441883,226205254,30662
1418450566386,39,-943,-1675,-35,3,0,-136007062,-538862498,890418309,226287489,30667
1418450566389,41,-952,-1680,-31,3,2,-136063011,-538848364,890400047,226359355,30673
1418450566389,40,-956,-1670,-23,0,4,-136101684,-538830546,890390394,226416488,30678
1418450566391,38,-969,-1676,-14,1,5,-136131015,-538814068,890387042,226451247,30683
1418450566392,41,-975,-1679,-4,0,3,-136143145,-538805169,890387025,226465195,30688
1418450566424,36,-975,-1662,2,0,-1,-136140372,-538807709,890385706,226466005,30693
1418450566424,43,-960,-1667,8,-3,-3,-136120253,-538815461,890386694,226455770,30698
1418450566426,53,-957,-1659,16,-5,-3,-136082232,-538825333,890393525,226428274,30703
1418450566426,42,-944,-1657,18,-4,-4,-136042169,-538839140,890399569,226395718,30708
1418450566429,60,-939,-1654,21,-3,-4,-136000669,-538854511,890407502,226352866,30713
1418450566429,53,-926,-1654,20,-2,-5,-135960354,-538873002,890412819,226312146,30719
1418450566431,55,-930,-1665,19,0,-7,-135926473,-538896709,890413738,226272428,30724
1418450566432,49,-924,-1665,17,2,-5,-135901115,-538916228,890415606,226233820,30729
1418450566439,46,-920,-1667,13,4,-2,-135888348,-538928314,890418872,226199841,30734
1418450566439,44,-921,-1665,9,5,1,-135885538,-538932430,890423832,226172195,30739
1418450566458,44,-923,-1660,5,8,2,-135896506,-538934453,890426712,226149442,30744
1418450566458,49,-925,-1665,-1,5,3,-135913634,-538930302,890427425,226146234,30749
1418450566460,42,-919,-1659,-7,4,1,-135935237,-538928261,890421953,226159660,30754
1418450566460,37,-930,-1669,-10,2,1,-135956962,-538923788,890415572,226182381,30759
1418450566493,42,-923,-1664,-12,0,1,-135977628,-538917179,890408664,226212898,30765
1418450566493,44,-932,-1675,-12,-1,2,-135994330,-538908151,890404177,226242028,30770
1418450566500,51,-940,-1675,-11,0,5,-136015165,-538892623,890403533,226269019,30775
1418450566500,47,-941,-1653,-12,0,5,-136037143,-538876805,890401995,226299530,30780
1418450566503,41,-946,-1679,-8,0,6,-136055088,-538859783,890404072,226321102,30785
1418450566503,42,-960,-1664,-4,1,5,-136069174,-538847157,890407068,226330909,30790
1418450566505,44,-957,-1652,0,0,3,-136075044,-538839840,890409444,226335450,30795
1418450566505,44,-965,-1659,1,-1,1,-136070641,-538837151,890411372,226336914,30800
1418450566508,44,-971,-1661,7,-1,-2,-136056054,-538843692,890412515,226325616,30805
1418450566508,44,-958,-1658,12,0,-3,-136037770,-538854585,890414158,226304208,30811
1418450566540,53,-948,-1669,15,0,-4,-136013963,-538869092,890416431,226275031,30816
1418450566540,43,-944,-1666,17,1,-5,-135987269,-538887750,890418330,226239165,30821
1418450566542,41,-928,-1669,17,2,-3,-135965062,-538902035,890422945,226200318,30826
1418450566543,42,-925,-1675,16,4,-3,-135948284,-538917353,890426662,226159269,30831
1418450566545,35,-930,-1670,14,5,-3,-135936312,-538932659,890428935,226121042,30836
1418450566545,37,-932,-1661,11,5,-3,-135929794,-538946586,890429330,226090207,30841
1418450566548,39,-932,-1666,7,5,-3,-135929190,-538959020,890427124,226069618,30846
1418450566548,38,-928,-1677,3,5,-3,-135933975,-538970095,890422538,226058401,30851
1418450566580,44,-933,-1669,1,5,-1,-135942394,-538975816,890419861,226050243,30857
1418450566580,35,-932,-1661,0,5,3,-135954546,-538971717,890422013,226044230,30862
1418450566582,38,-939,-1664,0,4,5,-135966633,-538961994,890427463,226038673,30867
1418450566583,28,-943,-1666,2,4,5,-135975829,-538953000,890433946,226029048,30872
1418450566585,24,-949,-1672,0,4,3,-135991682,-538947964,890435481,226025473,30877
1418450566585,40,-951,-1670,2,1,1,-135993096,-538946209,890437399,226021250,30882
1418450566588,32,-948,-1661,5,-2,-2,-135978370,-538951585,890438181,226014210,30887
1418450566588,37,-957,-1664,5,-4,-2,-135959833,-538955521,890439770,226009717,30892
1418450566620,37,-947,-1659,8,-6,-3,-135931543,-538961735,890442205,226002321,30897
1418450566620,44,-948,-1663,9,-7,-3,-135899058,-538967807,890445769,225993335,30903
1418450566644,48,-942,-1674,9,-5,-3,-135870548,-538975276,890448524,225981811,30908
1418450566644,49,-938,-1652,12,-3,-3,-135841422,-538985301,890452568,225959472,30913
1418450566646,44,-940,-1681,15,-3,-1,-135809533,-538991581,890461088,225930084,30918
1418450566646,43,-946,-1670,16,-3,0,-135776593,-538995906,890472033,225896425,30923
1418450566649,48,-941,-1659,17,-4,0,-135740615,-538999794,890483678,225862864,30928
1418450566649,42,-943,-1665,18,-1,1,-135710469,-539003587,890496168,225822676,30933
1418450566651,51,-947,-1667,19,-3,0,-135674106,-539008767,890508665,225782880,30938
1418450566651,51,-949,-1664,19,-2,-2,-135638160,-539019479,890517714,225743213,30944
1418450566654,43,-937,-1671,19,-2,-4,-135601226,-539034878,890523802,225704613,30949
1418450566654,49,-927,-1664,16,-2,-3,-135569176,-539046826,890530003,225670857,30954
1418450566679,48,-923,-1657,15,-2,-2,-135538217,-539056280,890537082,225638938,30959
1418450566679,46,-924,-1659,12,-2,-3,-135511067,-539066995,890540938,225614428,30964
1418450566681,52,-922,-1659,9,0,-2,-135495217,-539075042,890543134,225596049,30969
1418450566681,50,-923,-1681,6,3,-3,-135489470,-539086362,890540958,225581040,30974
1418450566684,47,-928,-1673,1,3,-2,-135491118,-539093603,890537493,225576423,30979
1418450566684,48,-931,-1664,0,3,0,-135496221,-539095533,890536133,225574116,30984
1418450566687,39,-934,-1673,-1,3,4,-135509295,-539087772,890538758,225574448,30990
1418450566688,49,-935,-1671,0,3,4,-135521754,-539080165,890542168,225571679,30995
1418450566720,49,-938,-1668,0,1,4,-135528547,-539071589,890546094,225572594,31000
1418450566720,51,-938,-1675,1,2,2,-135531516,-539068416,890548244,225569905,31005
1418450566722,43,-945,-1677,3,2,1,-135530599,-539068441,890550214,225562617,31010
1418450566723,46,-945,-1666,2,2,0,-135531668,-539070187,890550138,225558103,31015
1418450566725,47,-940,-1660,5,-2,0,-135517521,-539070969,890553725,225550572,31020
1418450566725,50,-943,-1672,7,0,1,-135507088,-539070990,890558650,225537344,31025
1418450566727,47,-933,-1663,5,1,1,-135501405,-539071014,890562044,225527299,31030
1418450566728,40,-934,-1666,7,1,2,-135493479,-539069382,890568238,225511504,31036
1418450566760,42,-934,-1660,9,2,1,-135485142,-539071269,890573959,225489406,31041
1418450566761,44,-936,-1668,10,4,0,-135479487,-539077096,890578014,225462855,31046
1418450566763,40,-927,-1661,10,0,0,-135464016,-539080604,890583531,225441971,31051
